Data from zc_m3_p1_Reflection_2,txt Node
Date: Wed Nov 25 16:52:42 GMT-03:00 2020
User: Darío
Spectrometer: USB2E3644
Trigger mode: 4
Integration Time (sec): 9,000000E-2
Scans to average: 10
Electric dark correction enabled: true
Nonlinearity correction enabled: false
Boxcar width: 10
XAxis mode: Wavelengths
Number of Pixels in Spectrum: 2048
>>>>>Begin Spectral Data<<<<<
178,315	92,81
178,696	115,22
179,076	124,22
179,457	110,53
179,838	82,93
180,218	82,03
180,599	107,81
180,979	83,64
181,36	-60
181,74	-52,94
182,121	30,77
182,501	68,75
182,881	68,32
183,262	70,94
183,642	81,4
184,022	87,07
184,402	81,82
184,783	84,95
185,163	91,29
185,543	97,27
185,923	98,78
186,303	104,38
186,683	111,66
187,063	113,9
187,443	113,96
187,823	113,01
188,203	114,52
188,583	115,48
188,963	114,01
189,343	113,37
189,723	118,42
190,102	121,51
190,482	123,32
190,862	124,64
191,242	123,54
191,621	123,1
192,001	120,89
192,38	121,08
192,76	120,89
193,14	119,83
193,519	118,85
193,898	119,36
194,278	119,86
194,657	119,19
195,037	118,66
195,416	118,32
195,795	116,3
196,175	113,85
196,554	114,92
196,933	116,19
197,312	115,76
197,692	111,93
198,071	110,15
198,45	110,44
198,829	108,43
199,208	108,91
199,587	109,25
199,966	110,81
200,345	111,49
200,724	110,75
201,103	110,73
201,482	110,73
201,86	111,58
202,239	111,02
202,618	108,92
202,997	108,93
203,375	108
203,754	106,5
204,133	106,38
204,511	105,56
204,89	103,99
205,269	102,79
205,647	104,16
206,026	104,66
206,404	105,22
206,782	107,09
207,161	106,79
207,539	108,48
207,918	110,92
208,296	113,54
208,674	112,49
209,052	112,03
209,431	111,51
209,809	110,45
210,187	111,28
210,565	112,89
210,943	112,82
211,321	114,66
211,699	117,62
212,077	120,62
212,455	123,87
212,833	126,33
213,211	127,47
213,589	127,94
213,967	127,77
214,345	126,85
214,722	127,91
215,1	127,34
215,478	123,49
215,855	118,83
216,233	115,87
216,611	117,5
216,988	120,4
217,366	121,18
217,743	120,12
218,121	119,69
218,498	120,44
218,876	122,17
219,253	123,68
219,631	124,43
220,008	124,7
220,385	123,89
220,762	123,3
221,14	123,71
221,517	123,15
221,894	125,47
222,271	125,56
222,648	125,04
223,025	126,19
223,402	128,62
223,78	132,59
224,157	133,28
224,533	136,54
224,91	138,1
225,287	141,86
225,664	149,25
226,041	150,95
226,418	153,07
226,795	148,43
227,171	146,21
227,548	149,3
227,925	152,07
228,301	159,41
228,678	167,62
229,055	168,34
229,431	172,44
229,808	171,86
230,184	175,6
230,561	180,49
230,937	187,47
231,313	188,21
231,69	189,91
232,066	192,76
232,442	199,03
232,819	200,98
233,195	195,02
233,571	191,94
233,947	192,94
234,323	192,1
234,699	202,59
235,075	207,73
235,451	211,63
235,827	216,24
236,203	216,02
236,579	213,85
236,955	224,8
237,331	238,75
237,707	266,35
238,083	301,11
238,459	348,07
238,834	423,44
239,21	603,7
239,586	1035,44
239,961	2518,18
240,337	5921,43
240,713	-2540,63
241,088	-998,75
241,464	-685,34
241,839	-500
242,215	-336
242,59	-242,86
242,965	-168,82
243,341	-117,12
243,716	-86,49
244,091	-72,44
244,467	-61,55
244,842	-54,33
245,217	-50,73
245,592	-48,22
245,967	-48,71
246,343	-47,61
246,718	-48,22
247,093	-49,27
247,468	-49,54
247,843	-49,16
248,218	-47,38
248,593	-46,22
248,967	-44,37
249,342	-42,75
249,717	-42,11
250,092	-43,17
250,467	-44,05
250,841	-46,15
251,216	-51,27
251,591	-57,68
251,965	-63,73
252,34	-69,79
252,714	-72,79
253,089	-75,08
253,463	-74,89
253,838	-69,97
254,212	-66,38
254,587	-62,55
254,961	-58,81
255,335	-52,55
255,71	-44,5
256,084	-35,85
256,458	-29,48
256,832	-24,87
257,206	-22,73
257,581	-20,88
257,955	-19,7
258,329	-19,01
258,703	-18,07
259,077	-17,17
259,451	-16,53
259,825	-16,03
260,199	-15,77
260,572	-16,17
260,946	-16,24
261,32	-16,05
261,694	-15,82
262,068	-15,57
262,441	-14,98
262,815	-14,23
263,189	-14,21
263,562	-14,15
263,936	-15,3
264,309	-16,54
264,683	-18,04
265,056	-18,59
265,43	-18,46
265,803	-18,06
266,176	-17,22
266,55	-17,15
266,923	-16,75
267,296	-17,08
267,67	-17,3
268,043	-16,98
268,416	-16,39
268,789	-15,41
269,162	-14,51
269,535	-13,67
269,908	-13,33
270,281	-13,06
270,654	-13,22
271,027	-13,51
271,4	-14,16
271,773	-14,41
272,146	-14,77
272,519	-15,06
272,891	-15,48
273,264	-16,14
273,637	-16,38
274,01	-16,74
274,382	-17,05
274,755	-17,43
275,127	-17,53
275,5	-17,32
275,872	-17,08
276,245	-16,77
276,617	-17,02
276,99	-17,78
277,362	-18,49
277,734	-18,11
278,107	-17,87
278,479	-16,87
278,851	-16
279,223	-15,06
279,596	-14,5
279,968	-13,94
280,34	-13,53
280,712	-12,96
281,084	-12,36
281,456	-11,75
281,828	-11,04
282,2	-10,24
282,572	-9,42
282,944	-8,6
283,315	-8,05
283,687	-7,61
284,059	-7,4
284,431	-6,85
284,802	-6,36
285,174	-6,11
285,546	-6,08
285,917	-6,22
286,289	-6,45
286,66	-6,42
287,032	-6,4
287,403	-6,38
287,775	-6,26
288,146	-6,17
288,518	-6,11
288,889	-6,12
289,26	-5,91
289,632	-6,12
290,003	-6,35
290,374	-6,85
290,745	-7,13
291,116	-7,01
291,487	-6,99
291,858	-6,95
292,229	-7,11
292,6	-6,88
292,971	-6,83
293,342	-6,47
293,713	-5,71
294,084	-5,22
294,455	-4,92
294,826	-4,9
295,196	-4,67
295,567	-4,34
295,938	-4,18
296,308	-4,12
296,679	-3,95
297,05	-3,97
297,42	-3,83
297,791	-3,65
298,161	-3,24
298,532	-3,09
298,902	-3,19
299,272	-3,14
299,643	-2,83
300,013	-2,61
300,383	-2,59
300,754	-2,51
301,124	-2,79
301,494	-3,11
301,864	-3,23
302,234	-3,4
302,604	-3,24
302,974	-3,14
303,344	-3,21
303,714	-3,02
304,084	-2,8
304,454	-2,39
304,824	-2,43
305,194	-2,56
305,563	-2,52
305,933	-2,26
306,303	-1,92
306,673	-1,45
307,042	-1,19
307,412	-1,56
307,781	-1,42
308,151	-1,11
308,521	-0,88
308,89	-0,48
309,259	-0,21
309,629	-0,08
309,998	-0
310,368	0,14
310,737	0,3
311,106	0,32
311,475	0,44
311,845	0,41
312,214	0,16
312,583	0,29
312,952	0,55
313,321	0,7
313,69	0,63
314,059	0,57
314,428	0,65
314,797	0,75
315,166	1,09
315,535	1,07
315,904	0,86
316,272	0,73
316,641	0,65
317,01	0,57
317,379	0,69
317,747	0,81
318,116	0,77
318,484	0,63
318,853	0,72
319,221	0,53
319,59	0,56
319,958	0,71
320,327	0,81
320,695	0,94
321,063	0,88
321,432	0,93
321,8	0,96
322,168	0,82
322,536	0,83
322,905	0,85
323,273	0,89
323,641	1,04
324,009	1,28
324,377	1,39
324,745	1,47
325,113	1,56
325,481	1,62
325,849	1,69
326,216	1,78
326,584	1,78
326,952	1,94
327,32	2,04
327,687	2,14
328,055	2,22
328,423	2,25
328,79	2,37
329,158	2,32
329,525	2,31
329,893	2,32
330,26	2,38
330,628	2,58
330,995	2,74
331,362	2,86
331,73	2,88
332,097	2,79
332,464	2,85
332,831	2,79
333,199	2,93
333,566	3,02
333,933	3,29
334,3	3,46
334,667	3,62
335,034	3,56
335,401	3,54
335,768	3,51
336,135	3,58
336,502	3,68
336,868	3,92
337,235	4,21
337,602	4,48
337,969	4,51
338,335	4,51
338,702	4,53
339,069	4,54
339,435	4,63
339,802	4,78
340,168	4,74
340,535	4,72
340,901	4,78
341,267	4,8
341,634	4,76
342	4,78
342,366	4,72
342,733	4,8
343,099	4,88
343,465	4,92
343,831	4,93
344,197	4,97
344,563	4,98
344,929	4,84
345,295	4,75
345,661	4,79
346,027	4,69
346,393	4,78
346,759	4,86
347,125	4,89
347,491	4,95
347,856	5,03
348,222	5,23
348,588	5,23
348,953	5,32
349,319	5,45
349,684	5,52
350,05	5,49
350,415	5,48
350,781	5,53
351,146	5,68
351,512	5,76
351,877	5,79
352,242	5,83
352,608	6,02
352,973	6,14
353,338	6,26
353,703	6,39
354,068	6,38
354,433	6,4
354,798	6,49
355,164	6,54
355,528	6,59
355,893	6,53
356,258	6,57
356,623	6,48
356,988	6,4
357,353	6,38
357,718	6,47
358,082	6,62
358,447	6,66
358,812	6,63
359,176	6,74
359,541	6,84
359,905	6,92
360,27	6,86
360,634	6,84
360,999	6,79
361,363	6,86
361,728	6,97
362,092	7,06
362,456	7,05
362,821	7,09
363,185	7,17
363,549	7,27
363,913	7,33
364,277	7,48
364,641	7,58
365,005	7,66
365,369	7,79
365,733	7,84
366,097	7,96
366,461	8,08
366,825	8,13
367,189	8,21
367,553	8,34
367,916	8,52
368,28	8,61
368,644	8,74
369,007	8,89
369,371	8,89
369,734	9
370,098	9,18
370,461	9,31
370,825	9,4
371,188	9,42
371,552	9,53
371,915	9,62
372,278	9,72
372,642	9,78
373,005	9,78
373,368	9,79
373,731	9,8
374,094	9,83
374,457	9,89
374,82	9,92
375,183	9,98
375,546	10
375,909	10,11
376,272	10,17
376,635	10,22
376,998	10,32
377,361	10,36
377,723	10,36
378,086	10,38
378,449	10,44
378,811	10,56
379,174	10,55
379,537	10,6
379,899	10,64
380,262	10,7
380,624	10,76
380,987	10,85
381,349	10,94
381,711	10,96
382,074	10,99
382,436	11,03
382,798	11,16
383,16	11,21
383,522	11,17
383,884	11,21
384,247	11,24
384,609	11,26
384,971	11,23
385,333	11,27
385,695	11,28
386,056	11,22
386,418	11,22
386,78	11,28
387,142	11,29
387,504	11,28
387,865	11,31
388,227	11,35
388,589	11,38
388,95	11,41
389,312	11,44
389,673	11,48
390,035	11,46
390,396	11,34
390,758	11,36
391,119	11,4
391,48	11,4
391,842	11,4
392,203	11,41
392,564	11,46
392,925	11,49
393,286	11,51
393,648	11,6
394,009	11,63
394,37	11,64
394,731	11,68
395,092	11,72
395,452	11,72
395,813	11,76
396,174	11,81
396,535	11,82
396,896	11,87
397,257	11,9
397,617	12,02
397,978	12,13
398,338	12,13
398,699	12,17
399,06	12,26
399,42	12,25
399,781	12,25
400,141	12,23
400,501	12,21
400,862	12,21
401,222	12,21
401,582	12,23
401,943	12,24
402,303	12,23
402,663	12,24
403,023	12,24
403,383	12,28
403,743	12,28
404,103	12,28
404,463	12,27
404,823	12,32
405,183	12,28
405,543	12,22
405,903	12,26
406,262	12,27
406,622	12,2
406,982	12,22
407,342	12,25
407,701	12,29
408,061	12,32
408,42	12,36
408,78	12,35
409,139	12,35
409,499	12,36
409,858	12,39
410,217	12,39
410,577	12,4
410,936	12,36
411,295	12,35
411,655	12,37
412,014	12,37
412,373	12,32
412,732	12,28
413,091	12,29
413,45	12,26
413,809	12,23
414,168	12,18
414,527	12,13
414,886	12,1
415,245	12,08
415,603	12,03
415,962	12
416,321	11,96
416,679	11,93
417,038	11,9
417,397	11,83
417,755	11,8
418,114	11,79
418,472	11,77
418,831	11,75
419,189	11,72
419,547	11,71
419,906	11,69
420,264	11,67
420,622	11,64
420,981	11,63
421,339	11,6
421,697	11,6
422,055	11,63
422,413	11,64
422,771	11,65
423,129	11,66
423,487	11,68
423,845	11,72
424,203	11,75
424,56	11,78
424,918	11,83
425,276	11,87
425,634	11,89
425,991	11,93
426,349	11,94
426,707	11,98
427,064	12,01
427,422	12,06
427,779	12,13
428,137	12,2
428,494	12,27
428,851	12,35
429,209	12,4
429,566	12,39
429,923	12,38
430,28	12,4
430,637	12,42
430,995	12,42
431,352	12,4
431,709	12,4
432,066	12,42
432,423	12,4
432,78	12,39
433,137	12,41
433,493	12,4
433,85	12,44
434,207	12,39
434,564	12,39
434,92	12,37
435,277	12,37
435,634	12,35
435,99	12,32
436,347	12,3
436,703	12,29
437,06	12,29
437,416	12,32
437,773	12,3
438,129	12,29
438,485	12,3
438,841	12,31
439,198	12,31
439,554	12,3
439,91	12,32
440,266	12,31
440,622	12,3
440,978	12,31
441,334	12,29
441,69	12,29
442,046	12,28
442,402	12,28
442,758	12,25
443,113	12,24
443,469	12,24
443,825	12,25
444,181	12,27
444,536	12,28
444,892	12,26
445,247	12,28
445,603	12,3
445,958	12,3
446,314	12,31
446,669	12,32
447,025	12,32
447,38	12,35
447,735	12,37
448,09	12,38
448,446	12,38
448,801	12,4
449,156	12,42
449,511	12,45
449,866	12,49
450,221	12,53
450,576	12,6
450,931	12,63
451,286	12,66
451,641	12,68
451,995	12,72
452,35	12,75
452,705	12,76
453,06	12,75
453,414	12,76
453,769	12,77
454,123	12,78
454,478	12,76
454,832	12,75
455,187	12,74
455,541	12,75
455,896	12,76
456,25	12,72
456,604	12,69
456,958	12,66
457,313	12,65
457,667	12,64
458,021	12,6
458,375	12,6
458,729	12,62
459,083	12,62
459,437	12,63
459,791	12,63
460,145	12,62
460,499	12,64
460,852	12,66
461,206	12,67
461,56	12,65
461,914	12,67
462,267	12,66
462,621	12,67
462,974	12,67
463,328	12,7
463,681	12,75
464,035	12,77
464,388	12,8
464,742	12,81
465,095	12,85
465,448	12,9
465,801	12,91
466,155	12,91
466,508	12,92
466,861	12,93
467,214	12,94
467,567	12,95
467,92	12,95
468,273	12,94
468,626	12,94
468,979	12,96
469,332	12,95
469,684	12,97
470,037	12,98
470,39	12,99
470,743	12,98
471,095	12,99
471,448	13,04
471,8	13,06
472,153	13,09
472,505	13,08
472,858	13,1
473,21	13,12
473,562	13,13
473,915	13,13
474,267	13,13
474,619	13,13
474,971	13,14
475,324	13,14
475,676	13,15
476,028	13,13
476,38	13,13
476,732	13,15
477,084	13,15
477,436	13,17
477,787	13,18
478,139	13,16
478,491	13,16
478,843	13,13
479,195	13,11
479,546	13,09
479,898	13,06
480,249	12,99
480,601	12,94
480,952	12,9
481,304	12,86
481,655	12,85
482,007	12,83
482,358	12,82
482,709	12,82
483,061	12,8
483,412	12,8
483,763	12,79
484,114	12,78
484,465	12,76
484,816	12,74
485,167	12,73
485,518	12,74
485,869	12,74
486,22	12,74
486,571	12,75
486,922	12,76
487,272	12,76
487,623	12,77
487,974	12,78
488,324	12,79
488,675	12,82
489,025	12,82
489,376	12,84
489,726	12,85
490,077	12,87
490,427	12,88
490,778	12,9
491,128	12,91
491,478	12,94
491,828	12,98
492,179	13,03
492,529	13,07
492,879	13,07
493,229	13,07
493,579	13,08
493,929	13,08
494,279	13,08
494,629	13,08
494,979	13,09
495,328	13,11
495,678	13,16
496,028	13,18
496,378	13,21
496,727	13,24
497,077	13,27
497,426	13,27
497,776	13,29
498,125	13,29
498,475	13,29
498,824	13,3
499,174	13,3
499,523	13,28
499,872	13,27
500,221	13,3
500,571	13,3
500,92	13,34
501,269	13,36
501,618	13,37
501,967	13,37
502,316	13,39
502,665	13,41
503,014	13,42
503,363	13,42
503,711	13,43
504,06	13,44
504,409	13,43
504,758	13,41
505,106	13,42
505,455	13,42
505,803	13,41
506,152	13,41
506,5	13,4
506,849	13,42
507,197	13,42
507,546	13,41
507,894	13,42
508,242	13,41
508,59	13,38
508,939	13,4
509,287	13,41
509,635	13,4
509,983	13,42
510,331	13,42
510,679	13,43
511,027	13,44
511,375	13,44
511,723	13,46
512,07	13,47
512,418	13,48
512,766	13,5
513,114	13,55
513,461	13,56
513,809	13,58
514,156	13,59
514,504	13,6
514,851	13,6
515,199	13,61
515,546	13,62
515,893	13,62
516,241	13,62
516,588	13,64
516,935	13,66
517,282	13,65
517,63	13,68
517,977	13,69
518,324	13,68
518,671	13,68
519,018	13,69
519,365	13,69
519,711	13,69
520,058	13,71
520,405	13,69
520,752	13,69
521,099	13,69
521,445	13,71
521,792	13,7
522,138	13,69
522,485	13,66
522,832	13,65
523,178	13,66
523,524	13,67
523,871	13,66
524,217	13,65
524,563	13,63
524,91	13,59
525,256	13,55
525,602	13,52
525,948	13,51
526,294	13,5
526,64	13,48
526,986	13,46
527,332	13,44
527,678	13,43
528,024	13,42
528,37	13,43
528,716	13,42
529,061	13,43
529,407	13,44
529,753	13,45
530,098	13,44
530,444	13,44
530,789	13,44
531,135	13,44
531,48	13,45
531,826	13,47
532,171	13,49
532,516	13,52
532,862	13,56
533,207	13,56
533,552	13,57
533,897	13,6
534,242	13,63
534,587	13,66
534,932	13,68
535,277	13,7
535,622	13,68
535,967	13,68
536,312	13,69
536,657	13,7
537,001	13,73
537,346	13,75
537,691	13,76
538,035	13,74
538,38	13,73
538,724	13,71
539,069	13,71
539,413	13,71
539,758	13,7
540,102	13,71
540,446	13,71
540,791	13,7
541,135	13,7
541,479	13,71
541,823	13,7
542,167	13,72
542,512	13,73
542,856	13,73
543,2	13,75
543,543	13,75
543,887	13,76
544,231	13,76
544,575	13,77
544,919	13,79
545,262	13,82
545,606	13,85
545,95	13,89
546,293	13,91
546,637	13,92
546,98	13,95
547,324	13,96
547,667	13,99
548,011	14,01
548,354	14,02
548,697	14
549,04	14
549,384	13,98
549,727	13,96
550,07	13,97
550,413	13,96
550,756	13,97
551,099	13,94
551,442	13,94
551,785	13,96
552,128	13,96
552,47	13,96
552,813	13,95
553,156	13,91
553,499	13,88
553,841	13,86
554,184	13,84
554,526	13,8
554,869	13,77
555,211	13,79
555,554	13,78
555,896	13,77
556,238	13,76
556,581	13,75
556,923	13,74
557,265	13,76
557,607	13,77
557,949	13,73
558,291	13,72
558,633	13,69
558,975	13,65
559,317	13,64
559,659	13,62
560,001	13,63
560,343	13,61
560,685	13,61
561,026	13,6
561,368	13,6
561,71	13,61
562,051	13,62
562,393	13,62
562,734	13,59
563,076	13,58
563,417	13,58
563,759	13,59
564,1	13,57
564,441	13,53
564,782	13,51
565,124	13,5
565,465	13,5
565,806	13,49
566,147	13,49
566,488	13,48
566,829	13,48
567,17	13,45
567,511	13,47
567,851	13,48
568,192	13,47
568,533	13,43
568,874	13,42
569,214	13,4
569,555	13,4
569,895	13,42
570,236	13,4
570,576	13,37
570,917	13,36
571,257	13,36
571,598	13,36
571,938	13,32
572,278	13,32
572,618	13,33
572,959	13,33
573,299	13,31
573,639	13,29
573,979	13,28
574,319	13,28
574,659	13,25
574,999	13,22
575,339	13,17
575,678	13,17
576,018	13,14
576,358	13,12
576,698	13,08
577,037	13,05
577,377	13,02
577,716	13,01
578,056	12,99
578,395	12,98
578,735	12,98
579,074	13
579,413	12,98
579,753	12,97
580,092	12,93
580,431	12,91
580,77	12,94
581,109	12,9
581,448	12,89
581,787	12,9
582,126	12,88
582,465	12,93
582,804	12,93
583,143	12,95
583,482	12,95
583,82	12,96
584,159	12,98
584,498	13,01
584,836	13,03
585,175	13,05
585,514	13,05
585,852	13,03
586,19	13,03
586,529	13,03
586,867	13,04
587,205	13,07
587,544	13,09
587,882	13,06
588,22	13,09
588,558	13,12
588,896	13,14
589,234	13,18
589,572	13,17
589,91	13,18
590,248	13,19
590,586	13,21
590,924	13,22
591,262	13,22
591,599	13,23
591,937	13,23
592,275	13,23
592,612	13,21
592,95	13,24
593,287	13,28
593,625	13,29
593,962	13,31
594,299	13,34
594,637	13,37
594,974	13,38
595,311	13,39
595,648	13,4
595,985	13,4
596,322	13,36
596,659	13,36
596,996	13,36
597,333	13,36
597,67	13,35
598,007	13,36
598,344	13,35
598,681	13,35
599,017	13,35
599,354	13,34
599,691	13,37
600,027	13,39
600,364	13,37
600,7	13,42
601,037	13,44
601,373	13,44
601,71	13,44
602,046	13,49
602,382	13,49
602,718	13,49
603,054	13,47
603,391	13,51
603,727	13,54
604,063	13,55
604,399	13,55
604,735	13,56
605,071	13,59
605,406	13,62
605,742	13,65
606,078	13,67
606,414	13,68
606,749	13,66
607,085	13,65
607,421	13,66
607,756	13,63
608,092	13,64
608,427	13,63
608,762	13,64
609,098	13,61
609,433	13,61
609,768	13,62
610,104	13,63
610,439	13,6
610,774	13,58
611,109	13,57
611,444	13,58
611,779	13,58
612,114	13,54
612,449	13,52
612,784	13,51
613,118	13,49
613,453	13,45
613,788	13,44
614,123	13,45
614,457	13,41
614,792	13,41
615,126	13,35
615,461	13,31
615,795	13,29
616,13	13,26
616,464	13,24
616,798	13,22
617,132	13,21
617,467	13,23
617,801	13,23
618,135	13,2
618,469	13,22
618,803	13,21
619,137	13,2
619,471	13,2
619,805	13,21
620,139	13,21
620,472	13,25
620,806	13,28
621,14	13,26
621,473	13,27
621,807	13,26
622,141	13,28
622,474	13,3
622,808	13,3
623,141	13,34
623,474	13,38
623,808	13,42
624,141	13,47
624,474	13,48
624,807	13,51
625,141	13,55
625,474	13,56
625,807	13,58
626,14	13,59
626,473	13,59
626,806	13,59
627,138	13,61
627,471	13,66
627,804	13,67
628,137	13,67
628,469	13,65
628,802	13,68
629,135	13,67
629,467	13,72
629,8	13,75
630,132	13,74
630,465	13,7
630,797	13,69
631,129	13,69
631,461	13,7
631,794	13,67
632,126	13,62
632,458	13,6
632,79	13,6
633,122	13,63
633,454	13,64
633,786	13,65
634,118	13,66
634,45	13,64
634,781	13,65
635,113	13,69
635,445	13,71
635,777	13,72
636,108	13,73
636,44	13,72
636,771	13,71
637,103	13,72
637,434	13,72
637,765	13,7
638,097	13,67
638,428	13,62
638,759	13,62
639,09	13,64
639,422	13,64
639,753	13,62
640,084	13,6
640,415	13,61
640,746	13,59
641,077	13,55
641,407	13,53
641,738	13,47
642,069	13,44
642,4	13,47
642,73	13,44
643,061	13,45
643,392	13,43
643,722	13,41
644,053	13,42
644,383	13,44
644,713	13,51
645,044	13,48
645,374	13,54
645,704	13,54
646,034	13,59
646,365	13,61
646,695	13,65
647,025	13,68
647,355	13,69
647,685	13,7
648,015	13,68
648,344	13,65
648,674	13,72
649,004	13,75
649,334	13,76
649,663	13,81
649,993	13,84
650,323	13,87
650,652	13,87
650,982	13,85
651,311	13,83
651,64	13,77
651,97	13,76
652,299	13,74
652,628	13,77
652,958	13,78
653,287	13,79
653,616	13,78
653,945	13,74
654,274	13,72
654,603	13,71
654,932	13,74
655,261	13,79
655,589	13,8
655,918	13,82
656,247	13,89
656,576	13,91
656,904	13,91
657,233	13,93
657,561	13,91
657,89	13,92
658,218	13,98
658,547	14,01
658,875	14,07
659,203	14,08
659,532	14,1
659,86	14,08
660,188	14,08
660,516	14,07
660,844	14,08
661,172	14,11
661,5	14,15
661,828	14,18
662,156	14,2
662,484	14,16
662,811	14,1
663,139	14,04
663,467	13,99
663,794	13,98
664,122	13,95
664,45	14
664,777	14,02
665,104	14,01
665,432	14,01
665,759	14,04
666,086	14,08
666,414	14,1
666,741	14,09
667,068	14,1
667,395	14,16
667,722	14,22
668,049	14,25
668,376	14,25
668,703	14,22
669,03	14,24
669,357	14,24
669,683	14,33
670,01	14,36
670,337	14,33
670,663	14,36
670,99	14,36
671,317	14,4
671,643	14,37
671,969	14,36
672,296	14,39
672,622	14,41
672,948	14,39
673,275	14,39
673,601	14,43
673,927	14,46
674,253	14,46
674,579	14,43
674,905	14,43
675,231	14,42
675,557	14,47
675,883	14,43
676,209	14,49
676,534	14,44
676,86	14,49
677,186	14,59
677,511	14,58
677,837	14,61
678,162	14,62
678,488	14,65
678,813	14,63
679,139	14,6
679,464	14,54
679,789	14,54
680,114	14,57
680,44	14,61
680,765	14,58
681,09	14,52
681,415	14,54
681,74	14,57
682,065	14,6
682,39	14,55
682,714	14,55
683,039	14,52
683,364	14,54
683,689	14,49
684,013	14,45
684,338	14,44
684,662	14,42
684,987	14,42
685,311	14,45
685,636	14,48
685,96	14,54
686,284	14,58
686,608	14,58
686,933	14,52
687,257	14,54
687,581	14,57
687,905	14,62
688,229	14,62
688,553	14,54
688,877	14,51
689,201	14,56
689,524	14,62
689,848	14,65
690,172	14,65
690,496	14,68
690,819	14,64
691,143	14,67
691,466	14,65
691,79	14,61
692,113	14,67
692,436	14,74
692,76	14,73
693,083	14,72
693,406	14,73
693,729	14,77
694,053	14,72
694,376	14,71
694,699	14,74
695,022	14,83
695,344	14,9
695,667	15,04
695,99	15,12
696,313	15,15
696,636	15,19
696,958	15,25
697,281	15,22
697,604	15,29
697,926	15,31
698,249	15,34
698,571	15,35
698,893	15,33
699,216	15,26
699,538	15,27
699,86	15,28
700,182	15,33
700,504	15,34
700,827	15,38
701,149	15,37
701,471	15,4
701,793	15,39
702,114	15,42
702,436	15,34
702,758	15,33
703,08	15,28
703,401	15,19
703,723	15,14
704,045	15,21
704,366	15,2
704,688	15,24
705,009	15,25
705,331	15,24
705,652	15,24
705,973	15,27
706,294	15,31
706,616	15,33
706,937	15,38
707,258	15,4
707,579	15,44
707,9	15,52
708,221	15,56
708,542	15,57
708,863	15,59
709,183	15,72
709,504	15,76
709,825	15,76
710,145	15,85
710,466	15,87
710,787	15,89
711,107	15,85
711,427	15,83
711,748	15,89
712,068	15,96
712,388	15,95
712,709	16,01
713,029	15,96
713,349	15,91
713,669	15,85
713,989	15,87
714,309	15,92
714,629	15,95
714,949	15,89
715,269	15,79
715,589	15,81
715,908	15,73
716,228	15,72
716,548	15,77
716,867	15,72
717,187	15,74
717,506	15,82
717,826	16
718,145	16,11
718,465	16,12
718,784	16,26
719,103	16,37
719,422	16,48
719,741	16,6
720,061	16,86
720,38	16,97
720,699	16,96
721,018	17,02
721,336	17,09
721,655	17,26
721,974	17,52
722,293	17,63
722,612	17,7
722,93	17,81
723,249	17,84
723,567	18,03
723,886	18,1
724,204	18,17
724,523	18,23
724,841	18,39
725,159	18,54
725,477	18,6
725,796	18,73
726,114	18,78
726,432	18,83
726,75	18,77
727,068	18,76
727,386	18,92
727,704	18,93
728,022	19,08
728,339	19,09
728,657	19,09
728,975	19,09
729,292	19,2
729,61	19,28
729,928	19,41
730,245	19,43
730,562	19,59
730,88	19,64
731,197	19,72
731,514	19,66
731,832	19,75
732,149	19,87
732,466	20,01
732,783	20,12
733,1	20,21
733,417	20,41
733,734	20,65
734,051	20,79
734,368	20,97
734,684	21,05
735,001	21,18
735,318	21,35
735,634	21,47
735,951	21,5
736,268	21,53
736,584	21,68
736,9	21,8
737,217	21,83
737,533	21,97
737,849	22,03
738,166	22,17
738,482	22,16
738,798	22,13
739,114	22,07
739,43	22,09
739,746	22,36
740,062	22,47
740,378	22,45
740,693	22,51
741,009	22,55
741,325	22,56
741,641	22,68
741,956	22,77
742,272	22,92
742,587	22,94
742,903	23,08
743,218	23,17
743,533	23,28
743,849	23,42
744,164	23,58
744,479	23,65
744,794	23,59
745,109	23,71
745,424	23,78
745,739	23,86
746,054	24,02
746,369	24,01
746,684	24,01
746,999	24,1
747,313	24,04
747,628	24,07
747,943	24,16
748,257	24,17
748,572	24,04
748,886	24,04
749,201	24,23
749,515	24,2
749,829	24,32
750,144	24,36
750,458	24,42
750,772	24,3
751,086	24,3
751,4	24,49
751,714	24,48
752,028	24,58
752,342	24,74
752,656	24,73
752,97	24,61
753,284	24,7
753,597	24,72
753,911	24,88
754,225	24,98
754,538	25,07
754,852	25,17
755,165	25,45
755,478	25,51
755,792	25,57
756,105	25,76
756,418	25,8
756,731	25,83
757,045	25,94
757,358	26,11
757,671	26,22
757,984	26,21
758,297	26,31
758,609	26,38
758,922	26,37
759,235	26,42
759,548	26,42
759,86	26,37
760,173	26,25
760,486	25,88
760,798	25,57
761,111	25,47
761,423	25,25
761,735	25,06
762,048	25,07
762,36	25,03
762,672	24,92
762,984	24,91
763,296	25,01
763,608	24,96
763,92	24,9
764,232	24,97
764,544	25,2
764,856	25,33
765,168	25,57
765,48	25,68
765,791	25,85
766,103	26,15
766,414	26,25
766,726	26,52
767,037	26,99
767,349	27,51
767,66	27,84
767,972	28,34
768,283	28,79
768,594	29,14
768,905	29,53
769,216	29,97
769,527	30,32
769,838	30,53
770,149	30,77
770,46	31,1
770,771	31,24
771,082	31,24
771,393	31,35
771,703	31,37
772,014	31,47
772,324	31,41
772,635	31,25
772,945	31,43
773,256	31,63
773,566	31,86
773,877	31,94
774,187	32,25
774,497	32,39
774,807	32,46
775,117	32,53
775,427	32,59
775,737	32,64
776,047	32,59
776,357	32,64
776,667	32,75
776,977	32,79
777,287	33,06
777,596	33,13
777,906	33,42
778,216	33,31
778,525	33,38
778,835	33,57
779,144	34,03
779,453	34,26
779,763	34,31
780,072	34,34
780,381	34,47
780,69	34,39
781	34,47
781,309	34,47
781,618	34,56
781,927	34,59
782,235	34,79
782,544	35,06
782,853	35,12
783,162	35,12
783,471	35,33
783,779	35,24
784,088	35,16
784,396	34,81
784,705	34,87
785,013	34,92
785,322	34,86
785,63	34,44
785,938	34,07
786,246	33,81
786,554	33,78
786,863	33,69
787,171	33,51
787,479	33,3
787,787	33,49
788,094	33,65
788,402	33,71
788,71	33,59
789,018	33,32
789,326	33,38
789,633	33,61
789,941	33,72
790,248	33,81
790,556	34,06
790,863	34,35
791,171	34,55
791,478	34,65
791,785	34,65
792,092	34,77
792,399	35,14
792,707	35,57
793,014	35,62
793,321	35,82
793,628	36,01
793,934	36,17
794,241	36,1
794,548	36,11
794,855	36,24
795,161	36,41
795,468	36,57
795,775	36,35
796,081	36,4
796,388	36,61
796,694	36,62
797	36,54
797,307	36,65
797,613	36,66
797,919	36,78
798,225	36,99
798,531	37,11
798,837	37,18
799,143	37,18
799,449	37,36
799,755	37,26
800,061	37,46
800,367	37,76
800,672	38,14
800,978	38,28
801,284	38,25
801,589	38,19
801,895	38,36
802,2	38,76
802,506	38,42
802,811	38,18
803,116	38,23
803,421	38,54
803,727	38,52
804,032	38,47
804,337	38,62
804,642	38,65
804,947	38,78
805,252	39,03
805,556	39,21
805,861	39,57
806,166	39,79
806,471	39,6
806,775	39,54
807,08	39,69
807,384	39,79
807,689	40,23
807,993	40,22
808,298	40,4
808,602	40,66
808,906	40,98
809,211	41,25
809,515	41,47
809,819	41,42
810,123	41,46
810,427	41,72
810,731	41,58
811,035	41,62
811,338	41,77
811,642	41,89
811,946	41,75
812,25	41,33
812,553	41,32
812,857	41,78
813,16	41,67
813,464	41,47
813,767	41,32
814,07	41,04
814,374	41,15
814,677	41,15
814,98	40,99
815,283	41,15
815,586	41,08
815,889	40,85
816,192	40,76
816,495	40,68
816,798	40,29
817,101	40,03
817,404	39,64
817,706	39,07
818,009	38,26
818,312	37,84
818,614	36,87
818,917	35,48
819,219	33,42
819,521	31,65
819,824	29,98
820,126	28,68
820,428	27,7
820,73	27,17
821,032	26,71
821,334	26,42
821,636	26,14
821,938	25,93
822,24	25,88
822,542	25,85
822,844	25,74
823,145	25,67
823,447	25,57
823,749	25,56
824,05	25,5
824,352	25,5
824,653	25,36
824,955	25,39
825,256	25,45
825,557	25,69
825,858	25,94
826,16	26,25
826,461	26,64
826,762	27,03
827,063	27,44
827,364	27,88
827,665	28,35
827,965	28,83
828,266	29,19
828,567	29,44
828,868	29,69
829,168	30,05
829,469	30,34
829,769	30,54
830,07	30,88
830,37	31,39
830,67	31,8
830,971	32,19
831,271	32,54
831,571	32,92
831,871	32,95
832,171	33,06
832,471	33,56
832,771	33,91
833,071	34,06
833,371	34,05
833,671	34,18
833,971	34,27
834,27	34,37
834,57	34,66
834,869	34,81
835,169	34,89
835,468	35,05
835,768	35,19
836,067	35,58
836,367	35,73
836,666	35,79
836,965	36,19
837,264	36,81
837,563	37,35
837,862	37,94
838,161	38,9
838,46	40,16
838,759	40,92
839,058	41,78
839,356	42,63
839,655	43,47
839,954	44,02
840,252	44,2
840,551	44,97
840,849	45,76
841,148	46,31
841,446	46,76
841,744	47,34
842,043	47,9
842,341	47,91
842,639	48
842,937	48,06
843,235	48,15
843,533	48,94
843,831	49,77
844,129	50,83
844,427	51,49
844,724	51,89
845,022	52,13
845,32	52,33
845,617	53,93
845,915	54,94
846,212	55,35
846,51	56,22
846,807	56,57
847,104	56,08
847,402	55,88
847,699	55,69
847,996	55,38
848,293	55,7
848,59	56,53
848,887	56,59
849,184	57,02
849,481	57,54
849,778	57,56
850,074	57,67
850,371	57,73
850,668	57,83
850,964	58,27
851,261	58,83
851,557	59,83
851,854	59,33
852,15	59,43
852,446	59,83
852,743	60,28
853,039	60,42
853,335	60,68
853,631	61,11
853,927	61,84
854,223	62,2
854,519	62,42
854,815	61,94
855,111	62,3
855,406	61,95
855,702	61,33
855,998	61,88
856,293	62,42
856,589	63,16
856,884	63,93
857,18	64,28
857,475	64,68
857,77	64,82
858,066	64,57
858,361	64,07
858,656	64,79
858,951	65,92
859,246	65,87
859,541	66,43
859,836	66,41
860,131	65,65
860,426	65,13
860,72	65,05
861,015	65,38
861,31	65,11
861,604	65,8
861,899	65,72
862,193	65,45
862,487	64,66
862,782	63,69
863,076	63,71
863,37	64
863,664	63,9
863,959	63,49
864,253	64,14
864,547	64,19
864,841	63,92
865,135	62,84
865,428	62,97
865,722	62,21
866,016	62,35
866,31	62,7
866,603	62,88
866,897	62,36
867,19	62,11
867,484	62,3
867,777	62,79
868,07	63,65
868,364	63,77
868,657	64,92
868,95	65,1
869,243	65,14
869,536	64,53
869,829	64,02
870,122	63,49
870,415	63,99
870,708	64,18
871	65,24
871,293	66,07
871,586	66,61
871,878	67,23
872,171	67,52
872,463	68,26
872,756	68,58
873,048	67,76
873,341	68,18
873,633	68,48
873,925	68,28
874,217	68,23
874,509	68,21
874,801	67,84
875,093	68,71
875,385	68,47
875,677	69,06
875,969	70,43
