Data from zc_m2_p4_Reflection_2,txt Node
Date: Wed Nov 25 16:49:10 GMT-03:00 2020
User: Darío
Spectrometer: USB2E3644
Trigger mode: 4
Integration Time (sec): 9,000000E-2
Scans to average: 10
Electric dark correction enabled: true
Nonlinearity correction enabled: false
Boxcar width: 10
XAxis mode: Wavelengths
Number of Pixels in Spectrum: 2048
>>>>>Begin Spectral Data<<<<<
178,315	205,54
178,696	155,26
179,076	140,63
179,457	103,59
179,838	95,49
180,218	109,78
180,599	118,65
180,979	136,36
181,36	-95,07
181,74	-336,76
182,121	494,03
182,501	216,93
182,881	206,99
183,262	194
183,642	185,3
184,022	175,7
184,402	172,96
184,783	174,92
185,163	166,61
185,543	163,51
185,923	161,07
186,303	156,24
186,683	152,26
187,063	149,85
187,443	145,91
187,823	143,82
188,203	140,88
188,583	138,95
188,963	137,58
189,343	132,85
189,723	130,63
190,102	130,34
190,482	128,22
190,862	126,87
191,242	126,02
191,621	127,75
192,001	129,31
192,38	129,1
192,76	129,09
193,14	128,61
193,519	126,31
193,898	125,16
194,278	123,53
194,657	123,65
195,037	122,16
195,416	120,48
195,795	119,35
196,175	118,34
196,554	117,53
196,933	117,51
197,312	117,41
197,692	117,37
198,071	115,28
198,45	113,5
198,829	112,78
199,208	112,25
199,587	111,4
199,966	110,81
200,345	111,16
200,724	110,42
201,103	109,14
201,482	108,27
201,86	107,87
202,239	108,05
202,618	107,64
202,997	107,92
203,375	109,1
203,754	109,66
204,133	110,85
204,511	110,68
204,89	110,16
205,269	109,12
205,647	108,86
206,026	111,25
206,404	113,73
206,782	114,72
207,161	116,2
207,539	117,29
207,918	117,79
208,296	117,1
208,674	117,62
209,052	118,55
209,431	121,08
209,809	122,26
210,187	120,33
210,565	119,66
210,943	121,07
211,321	121,73
211,699	123,57
212,077	125,9
212,455	128,72
212,833	130,82
213,211	129,87
213,589	128,56
213,967	127,18
214,345	124,46
214,722	122,07
215,1	119,94
215,478	118,73
215,855	118,48
216,233	120,19
216,611	120,84
216,988	121,65
217,366	123,02
217,743	124,78
218,121	130,33
218,498	133,18
218,876	133,57
219,253	134,93
219,631	132,74
220,008	131,69
220,385	133,37
220,762	133,72
221,14	136,9
221,517	141,62
221,894	144,09
222,271	148,36
222,648	150,81
223,025	151,92
223,402	152,68
223,78	151,46
224,157	147,86
224,533	148,01
224,91	146,87
225,287	146,02
225,664	145,12
226,041	145,52
226,418	148,23
226,795	151,79
227,171	152,13
227,548	156,94
227,925	161,06
228,301	159,06
228,678	159,18
229,055	159,75
229,431	160,53
229,808	157,91
230,184	160,28
230,561	167,49
230,937	174,97
231,313	180,75
231,69	188,64
232,066	198,83
232,442	206,98
232,819	217,22
233,195	223,44
233,571	231,43
233,947	229,33
234,323	228,01
234,699	230,21
235,075	239,18
235,451	246,03
235,827	249,15
236,203	256,54
236,579	276,8
236,955	300,2
237,331	324,63
237,707	383,28
238,083	462,8
238,459	583,45
238,834	1011,96
239,21	5066,96
239,586	-1871,7
239,961	-1113,66
240,337	-906,13
240,713	-619,48
241,088	-447,55
241,464	-378,2
241,839	-309,58
242,215	-248,44
242,59	-196,87
242,965	-150,07
243,341	-111,41
243,716	-87,96
244,091	-73,74
244,467	-63,95
244,842	-57,3
245,217	-54,04
245,592	-52,16
245,967	-53,12
246,343	-52,09
246,718	-53,82
247,093	-56,05
247,468	-56,97
247,843	-56,89
248,218	-54,27
248,593	-52,89
248,967	-50,7
249,342	-47,95
249,717	-47,64
250,092	-48,45
250,467	-49,44
250,841	-51,75
251,216	-56,53
251,591	-60,91
251,965	-65,63
252,34	-70,18
252,714	-73,95
253,089	-75,64
253,463	-75,65
253,838	-70,37
254,212	-67,93
254,587	-64,44
254,961	-59,99
255,335	-54,93
255,71	-46,54
256,084	-37,47
256,458	-31,02
256,832	-26,91
257,206	-25,12
257,581	-23,2
257,955	-22,28
258,329	-21,31
258,703	-20,78
259,077	-20,25
259,451	-19,92
259,825	-19,3
260,199	-18,84
260,572	-18,91
260,946	-19,24
261,32	-19,3
261,694	-19,07
262,068	-19,01
262,441	-18,23
262,815	-17,23
263,189	-17,01
263,562	-17,46
263,936	-18,61
264,309	-19,6
264,683	-20,69
265,056	-20,95
265,43	-20,49
265,803	-19,73
266,176	-18,9
266,55	-17,69
266,923	-16,96
267,296	-16,78
267,67	-16,66
268,043	-16,49
268,416	-16,08
268,789	-14,92
269,162	-13,63
269,535	-12,86
269,908	-12,1
270,281	-11,74
270,654	-12,01
271,027	-12,5
271,4	-12,79
271,773	-13,08
272,146	-13,73
272,519	-14,55
272,891	-15,03
273,264	-15,67
273,637	-15,81
274,01	-16,21
274,382	-17,01
274,755	-17,02
275,127	-17,08
275,5	-16,9
275,872	-16,53
276,245	-16,03
276,617	-16,18
276,99	-17,03
277,362	-18,09
277,734	-18,17
278,107	-18,44
278,479	-17,53
278,851	-16,77
279,223	-16,01
279,596	-15,4
279,968	-14,51
280,34	-13,91
280,712	-13,89
281,084	-13,51
281,456	-12,95
281,828	-12,13
282,2	-11,43
282,572	-10,93
282,944	-10,26
283,315	-9,86
283,687	-9,81
284,059	-9,57
284,431	-9,15
284,802	-8,53
285,174	-7,75
285,546	-7,52
285,917	-7,42
286,289	-7,44
286,66	-7,11
287,032	-6,93
287,403	-7
287,775	-6,8
288,146	-6,56
288,518	-6,2
288,889	-6,16
289,26	-6,11
289,632	-6,22
290,003	-6,09
290,374	-6,3
290,745	-6,77
291,116	-6,88
291,487	-6,74
291,858	-6,92
292,229	-6,89
292,6	-6,44
292,971	-6,15
293,342	-5,79
293,713	-5,01
294,084	-4,71
294,455	-4,45
294,826	-4,27
295,196	-3,97
295,567	-3,89
295,938	-3,79
296,308	-3,74
296,679	-3,44
297,05	-3,07
297,42	-2,99
297,791	-2,81
298,161	-2,66
298,532	-2,42
298,902	-2,4
299,272	-2,23
299,643	-1,75
300,013	-1,55
300,383	-1,57
300,754	-1,65
301,124	-1,88
301,494	-2,03
301,864	-1,94
302,234	-2,1
302,604	-1,81
302,974	-1,64
303,344	-1,63
303,714	-1,34
304,084	-1
304,454	-0,64
304,824	-0,62
305,194	-0,5
305,563	-0,64
305,933	-0,31
306,303	0,12
306,673	0,77
307,042	1,15
307,412	1,13
307,781	1,36
308,151	1,61
308,521	2,02
308,89	2,48
309,259	2,81
309,629	3,02
309,998	3,35
310,368	3,44
310,737	3,64
311,106	3,75
311,475	3,74
311,845	3,84
312,214	3,75
312,583	3,72
312,952	4,02
313,321	4,3
313,69	4,37
314,059	4,56
314,428	4,61
314,797	4,69
315,166	4,95
315,535	5,1
315,904	5,16
316,272	4,88
316,641	5,04
317,01	5,01
317,379	5,02
317,747	5,37
318,116	5,53
318,484	5,62
318,853	5,82
319,221	6
319,59	6,16
319,958	6,36
320,327	6,6
320,695	6,87
321,063	7,2
321,432	7,49
321,8	7,68
322,168	7,81
322,536	7,75
322,905	7,52
323,273	7,59
323,641	7,71
324,009	8,08
324,377	8,23
324,745	8,36
325,113	8,61
325,481	8,67
325,849	8,67
326,216	8,8
326,584	8,82
326,952	8,92
327,32	9,05
327,687	9,19
328,055	9,34
328,423	9,38
328,79	9,44
329,158	9,44
329,525	9,53
329,893	9,71
330,26	9,89
330,628	10,12
330,995	10,19
331,362	10,2
331,73	10,26
332,097	10,31
332,464	10,44
332,831	10,53
333,199	10,71
333,566	10,92
333,933	11,14
334,3	11,31
334,667	11,39
335,034	11,27
335,401	11,4
335,768	11,62
336,135	11,74
336,502	11,78
336,868	12,05
337,235	12,31
337,602	12,5
337,969	12,66
338,335	12,87
338,702	12,97
339,069	13,09
339,435	13,2
339,802	13,4
340,168	13,51
340,535	13,49
340,901	13,46
341,267	13,45
341,634	13,62
342	13,84
342,366	13,93
342,733	14,18
343,099	14,33
343,465	14,36
343,831	14,39
344,197	14,57
344,563	14,56
344,929	14,44
345,295	14,4
345,661	14,5
346,027	14,5
346,393	14,64
346,759	14,91
347,125	15,06
347,491	15,14
347,856	15,36
348,222	15,52
348,588	15,65
348,953	15,82
349,319	15,85
349,684	15,75
350,05	15,77
350,415	15,89
350,781	16,02
351,146	16,2
351,512	16,24
351,877	16,29
352,242	16,42
352,608	16,58
352,973	16,66
353,338	16,76
353,703	16,86
354,068	16,91
354,433	16,82
354,798	16,86
355,164	16,86
355,528	16,87
355,893	16,89
356,258	16,87
356,623	16,89
356,988	16,9
357,353	17,04
357,718	17,18
358,082	17,19
358,447	17,22
358,812	17,16
359,176	17,34
359,541	17,46
359,905	17,54
360,27	17,52
360,634	17,58
360,999	17,6
361,363	17,75
361,728	17,87
362,092	18,04
362,456	18,08
362,821	18,15
363,185	18,23
363,549	18,34
363,913	18,49
364,277	18,59
364,641	18,74
365,005	18,87
365,369	18,94
365,733	19,07
366,097	19,15
366,461	19,26
366,825	19,31
367,189	19,35
367,553	19,44
367,916	19,66
368,28	19,8
368,644	19,9
369,007	20,01
369,371	20,13
369,734	20,18
370,098	20,32
370,461	20,45
370,825	20,5
371,188	20,6
371,552	20,71
371,915	20,85
372,278	20,94
372,642	21,06
373,005	21,12
373,368	21,19
373,731	21,22
374,094	21,31
374,457	21,39
374,82	21,48
375,183	21,65
375,546	21,69
375,909	21,74
376,272	21,85
376,635	21,95
376,998	22,01
377,361	22,1
377,723	22,15
378,086	22,21
378,449	22,3
378,811	22,38
379,174	22,5
379,537	22,54
379,899	22,62
380,262	22,66
380,624	22,81
380,987	22,87
381,349	22,95
381,711	23,01
382,074	23,09
382,436	23,11
382,798	23,21
383,16	23,23
383,522	23,27
383,884	23,32
384,247	23,36
384,609	23,42
384,971	23,53
385,333	23,55
385,695	23,61
386,056	23,62
386,418	23,69
386,78	23,71
387,142	23,75
387,504	23,74
387,865	23,81
388,227	23,79
388,589	23,9
388,95	24
389,312	24,07
389,673	24,12
390,035	24,14
390,396	24,13
390,758	24,2
391,119	24,23
391,48	24,28
391,842	24,32
392,203	24,38
392,564	24,38
392,925	24,49
393,286	24,47
393,648	24,51
394,009	24,57
394,37	24,6
394,731	24,64
395,092	24,71
395,452	24,75
395,813	24,8
396,174	24,83
396,535	24,85
396,896	24,89
397,257	24,93
397,617	25,04
397,978	25,05
398,338	25,08
398,699	25,16
399,06	25,24
399,42	25,25
399,781	25,29
400,141	25,36
400,501	25,35
400,862	25,48
401,222	25,52
401,582	25,53
401,943	25,54
402,303	25,57
402,663	25,6
403,023	25,61
403,383	25,64
403,743	25,66
404,103	25,69
404,463	25,75
404,823	25,78
405,183	25,79
405,543	25,82
405,903	25,87
406,262	25,89
406,622	25,89
406,982	25,93
407,342	25,93
407,701	25,95
408,061	26,05
408,42	26,02
408,78	26,07
409,139	26,07
409,499	26,08
409,858	26,05
410,217	26,04
410,577	26,05
410,936	26,06
411,295	26,11
411,655	26,11
412,014	26,09
412,373	26,08
412,732	26,09
413,091	26,1
413,45	26,15
413,809	26,13
414,168	26,12
414,527	26,11
414,886	26,11
415,245	26,09
415,603	26,03
415,962	26,05
416,321	26,02
416,679	26,01
417,038	26,01
417,397	26
417,755	26,01
418,114	26
418,472	25,99
418,831	25,98
419,189	25,98
419,547	25,96
419,906	25,96
420,264	25,96
420,622	25,96
420,981	25,94
421,339	25,95
421,697	25,95
422,055	25,97
422,413	25,97
422,771	25,99
423,129	26,01
423,487	26,02
423,845	26,06
424,203	26,08
424,56	26,11
424,918	26,15
425,276	26,2
425,634	26,24
425,991	26,3
426,349	26,33
426,707	26,38
427,064	26,43
427,422	26,48
427,779	26,51
428,137	26,57
428,494	26,63
428,851	26,7
429,209	26,76
429,566	26,76
429,923	26,82
430,28	26,85
430,637	26,88
430,995	26,86
431,352	26,85
431,709	26,89
432,066	26,94
432,423	26,97
432,78	26,97
433,137	27
433,493	27
433,85	27
434,207	26,96
434,564	26,96
434,92	27
435,277	27,01
435,634	27,02
435,99	27,02
436,347	26,98
436,703	27
437,06	27
437,416	26,97
437,773	26,97
438,129	26,98
438,485	27,01
438,841	27,02
439,198	27,02
439,554	27,02
439,91	27,02
440,266	27,02
440,622	27,03
440,978	27,06
441,334	27,06
441,69	27,07
442,046	27,07
442,402	27,03
442,758	27,04
443,113	27,05
443,469	27,04
443,825	27,06
444,181	27,06
444,536	27,08
444,892	27,1
445,247	27,11
445,603	27,14
445,958	27,16
446,314	27,17
446,669	27,19
447,025	27,2
447,38	27,22
447,735	27,24
448,09	27,23
448,446	27,22
448,801	27,23
449,156	27,26
449,511	27,31
449,866	27,35
450,221	27,4
450,576	27,41
450,931	27,48
451,286	27,53
451,641	27,58
451,995	27,62
452,35	27,67
452,705	27,67
453,06	27,67
453,414	27,66
453,769	27,69
454,123	27,69
454,478	27,72
454,832	27,72
455,187	27,72
455,541	27,73
455,896	27,75
456,25	27,75
456,604	27,75
456,958	27,73
457,313	27,72
457,667	27,71
458,021	27,72
458,375	27,74
458,729	27,76
459,083	27,76
459,437	27,77
459,791	27,77
460,145	27,81
460,499	27,82
460,852	27,84
461,206	27,86
461,56	27,86
461,914	27,84
462,267	27,84
462,621	27,86
462,974	27,86
463,328	27,88
463,681	27,89
464,035	27,9
464,388	27,93
464,742	27,94
465,095	27,94
465,448	27,94
465,801	27,92
466,155	27,92
466,508	27,95
466,861	27,97
467,214	27,97
467,567	27,95
467,92	27,95
468,273	27,97
468,626	27,95
468,979	27,95
469,332	27,96
469,684	27,96
470,037	27,98
470,39	27,99
470,743	28,01
471,095	28,02
471,448	28,06
471,8	28,07
472,153	28,12
472,505	28,17
472,858	28,17
473,21	28,19
473,562	28,24
473,915	28,23
474,267	28,24
474,619	28,24
474,971	28,25
475,324	28,26
475,676	28,24
476,028	28,27
476,38	28,3
476,732	28,32
477,084	28,34
477,436	28,33
477,787	28,34
478,139	28,35
478,491	28,34
478,843	28,36
479,195	28,37
479,546	28,36
479,898	28,36
480,249	28,44
480,601	28,51
480,952	28,52
481,304	28,51
481,655	28,48
482,007	28,46
482,358	28,45
482,709	28,43
483,061	28,43
483,412	28,42
483,763	28,4
484,114	28,38
484,465	28,39
484,816	28,38
485,167	28,37
485,518	28,36
485,869	28,36
486,22	28,36
486,571	28,36
486,922	28,36
487,272	28,36
487,623	28,32
487,974	28,25
488,324	28,22
488,675	28,23
489,025	28,23
489,376	28,24
489,726	28,27
490,077	28,28
490,427	28,29
490,778	28,3
491,128	28,33
491,478	28,36
491,828	28,38
492,179	28,4
492,529	28,43
492,879	28,47
493,229	28,49
493,579	28,52
493,929	28,51
494,279	28,53
494,629	28,55
494,979	28,58
495,328	28,61
495,678	28,63
496,028	28,64
496,378	28,71
496,727	28,75
497,077	28,76
497,426	28,78
497,776	28,79
498,125	28,81
498,475	28,81
498,824	28,81
499,174	28,8
499,523	28,81
499,872	28,82
500,221	28,83
500,571	28,83
500,92	28,85
501,269	28,88
501,618	28,89
501,967	28,91
502,316	28,91
502,665	28,92
503,014	28,93
503,363	28,93
503,711	28,93
504,06	28,95
504,409	28,96
504,758	28,92
505,106	28,94
505,455	28,94
505,803	28,95
506,152	28,94
506,5	28,95
506,849	28,96
507,197	28,95
507,546	28,95
507,894	28,95
508,242	28,93
508,59	28,94
508,939	28,96
509,287	28,96
509,635	28,97
509,983	28,97
510,331	29
510,679	29,02
511,027	29,04
511,375	29,05
511,723	29,06
512,07	29,11
512,418	29,14
512,766	29,17
513,114	29,18
513,461	29,2
513,809	29,23
514,156	29,23
514,504	29,25
514,851	29,24
515,199	29,25
515,546	29,25
515,893	29,24
516,241	29,25
516,588	29,26
516,935	29,26
517,282	29,27
517,63	29,25
517,977	29,27
518,324	29,25
518,671	29,25
519,018	29,23
519,365	29,21
519,711	29,19
520,058	29,19
520,405	29,18
520,752	29,18
521,099	29,19
521,445	29,2
521,792	29,2
522,138	29,21
522,485	29,22
522,832	29,25
523,178	29,25
523,524	29,24
523,871	29,24
524,217	29,24
524,563	29,23
524,91	29,28
525,256	29,31
525,602	29,33
525,948	29,34
526,294	29,36
526,64	29,36
526,986	29,34
527,332	29,33
527,678	29,33
528,024	29,33
528,37	29,34
528,716	29,35
529,061	29,35
529,407	29,37
529,753	29,37
530,098	29,37
530,444	29,36
530,789	29,37
531,135	29,39
531,48	29,4
531,826	29,4
532,171	29,38
532,516	29,37
532,862	29,38
533,207	29,35
533,552	29,34
533,897	29,36
534,242	29,38
534,587	29,4
534,932	29,42
535,277	29,44
535,622	29,42
535,967	29,44
536,312	29,45
536,657	29,43
537,001	29,45
537,346	29,42
537,691	29,45
538,035	29,46
538,38	29,47
538,724	29,47
539,069	29,48
539,413	29,48
539,758	29,48
540,102	29,46
540,446	29,48
540,791	29,49
541,135	29,5
541,479	29,5
541,823	29,5
542,167	29,5
542,512	29,54
542,856	29,53
543,2	29,51
543,543	29,51
543,887	29,52
544,231	29,53
544,575	29,56
544,919	29,58
545,262	29,59
545,606	29,6
545,95	29,62
546,293	29,62
546,637	29,63
546,98	29,65
547,324	29,69
547,667	29,72
548,011	29,75
548,354	29,74
548,697	29,76
549,04	29,79
549,384	29,78
549,727	29,74
550,07	29,77
550,413	29,78
550,756	29,82
551,099	29,82
551,442	29,81
551,785	29,8
552,128	29,76
552,47	29,73
552,813	29,72
553,156	29,72
553,499	29,7
553,841	29,69
554,184	29,66
554,526	29,64
554,869	29,6
555,211	29,56
555,554	29,56
555,896	29,55
556,238	29,52
556,581	29,53
556,923	29,5
557,265	29,51
557,607	29,47
557,949	29,46
558,291	29,43
558,633	29,42
558,975	29,38
559,317	29,37
559,659	29,39
560,001	29,37
560,343	29,34
560,685	29,35
561,026	29,36
561,368	29,39
561,71	29,4
562,051	29,41
562,393	29,44
562,734	29,42
563,076	29,38
563,417	29,38
563,759	29,37
564,1	29,36
564,441	29,35
564,782	29,35
565,124	29,36
565,465	29,36
565,806	29,37
566,147	29,38
566,488	29,4
566,829	29,38
567,17	29,38
567,511	29,38
567,851	29,37
568,192	29,34
568,533	29,34
568,874	29,35
569,214	29,33
569,555	29,32
569,895	29,35
570,236	29,36
570,576	29,37
570,917	29,34
571,257	29,34
571,598	29,31
571,938	29,3
572,278	29,25
572,618	29,26
572,959	29,23
573,299	29,23
573,639	29,23
573,979	29,22
574,319	29,23
574,659	29,22
574,999	29,2
575,339	29,21
575,678	29,16
576,018	29,08
576,358	29,04
576,698	29,02
577,037	28,95
577,377	28,93
577,716	28,91
578,056	28,92
578,395	28,91
578,735	28,92
579,074	28,9
579,413	28,91
579,753	28,91
580,092	28,89
580,431	28,89
580,77	28,87
581,109	28,83
581,448	28,8
581,787	28,77
582,126	28,82
582,465	28,84
582,804	28,86
583,143	28,94
583,482	28,94
583,82	28,97
584,159	29,03
584,498	29,02
584,836	29,03
585,175	29,03
585,514	28,99
585,852	28,99
586,19	29,03
586,529	29,02
586,867	29
587,205	29
587,544	29,01
587,882	28,99
588,22	29,03
588,558	29,03
588,896	29,06
589,234	29,04
589,572	29,05
589,91	29,03
590,248	29,03
590,586	29,05
590,924	29,02
591,262	29
591,599	29,04
591,937	29,06
592,275	29,06
592,612	29,09
592,95	29,07
593,287	29,08
593,625	29,11
593,962	29,15
594,299	29,23
594,637	29,24
594,974	29,29
595,311	29,29
595,648	29,29
595,985	29,29
596,322	29,29
596,659	29,29
596,996	29,3
597,333	29,29
597,67	29,3
598,007	29,32
598,344	29,33
598,681	29,34
599,017	29,29
599,354	29,28
599,691	29,32
600,027	29,36
600,364	29,36
600,7	29,38
601,037	29,41
601,373	29,39
601,71	29,4
602,046	29,4
602,382	29,45
602,718	29,45
603,054	29,45
603,391	29,47
603,727	29,46
604,063	29,48
604,399	29,49
604,735	29,47
605,071	29,45
605,406	29,47
605,742	29,48
606,078	29,54
606,414	29,54
606,749	29,52
607,085	29,53
607,421	29,53
607,756	29,5
608,092	29,46
608,427	29,4
608,762	29,41
609,098	29,37
609,433	29,35
609,768	29,36
610,104	29,38
610,439	29,34
610,774	29,34
611,109	29,35
611,444	29,35
611,779	29,37
612,114	29,39
612,449	29,35
612,784	29,32
613,118	29,28
613,453	29,32
613,788	29,31
614,123	29,29
614,457	29,27
614,792	29,26
615,126	29,29
615,461	29,29
615,795	29,27
616,13	29,27
616,464	29,25
616,798	29,22
617,132	29,21
617,467	29,25
617,801	29,23
618,135	29,18
618,469	29,17
618,803	29,18
619,137	29,19
619,471	29,16
619,805	29,12
620,139	29,12
620,472	29,05
620,806	29,07
621,14	29,03
621,473	29,02
621,807	29,04
622,141	29,06
622,474	29,09
622,808	29,12
623,141	29,16
623,474	29,18
623,808	29,23
624,141	29,28
624,474	29,25
624,807	29,29
625,141	29,31
625,474	29,3
625,807	29,27
626,14	29,26
626,473	29,31
626,806	29,34
627,138	29,35
627,471	29,38
627,804	29,36
628,137	29,39
628,469	29,34
628,802	29,34
629,135	29,34
629,467	29,36
629,8	29,3
630,132	29,27
630,465	29,3
630,797	29,34
631,129	29,31
631,461	29,28
631,794	29,28
632,126	29,28
632,458	29,3
632,79	29,25
633,122	29,29
633,454	29,27
633,786	29,28
634,118	29,29
634,45	29,32
634,781	29,31
635,113	29,31
635,445	29,37
635,777	29,37
636,108	29,35
636,44	29,3
636,771	29,35
637,103	29,37
637,434	29,34
637,765	29,26
638,097	29,24
638,428	29,21
638,759	29,17
639,09	29,18
639,422	29,2
639,753	29,24
640,084	29,2
640,415	29,18
640,746	29,17
641,077	29,13
641,407	29,08
641,738	29,08
642,069	29,06
642,4	29,04
642,73	29,03
643,061	29
643,392	29,04
643,722	29,01
644,053	28,99
644,383	28,99
644,713	29
645,044	28,99
645,374	29,03
645,704	29,04
646,034	29,03
646,365	29,04
646,695	29,1
647,025	29,1
647,355	29,16
647,685	29,14
648,015	29,2
648,344	29,25
648,674	29,31
649,004	29,29
649,334	29,32
649,663	29,34
649,993	29,4
650,323	29,38
650,652	29,37
650,982	29,38
651,311	29,33
651,64	29,36
651,97	29,33
652,299	29,32
652,628	29,33
652,958	29,33
653,287	29,33
653,616	29,25
653,945	29,24
654,274	29,22
654,603	29,26
654,932	29,27
655,261	29,27
655,589	29,32
655,918	29,42
656,247	29,45
656,576	29,48
656,904	29,48
657,233	29,51
657,561	29,52
657,89	29,54
658,218	29,62
658,547	29,58
658,875	29,61
659,203	29,63
659,532	29,61
659,86	29,64
660,188	29,59
660,516	29,6
660,844	29,56
661,172	29,54
661,5	29,56
661,828	29,58
662,156	29,57
662,484	29,51
662,811	29,43
663,139	29,38
663,467	29,37
663,794	29,32
664,122	29,25
664,45	29,25
664,777	29,2
665,104	29,21
665,432	29,27
665,759	29,26
666,086	29,34
666,414	29,42
666,741	29,38
667,068	29,44
667,395	29,47
667,722	29,55
668,049	29,56
668,376	29,52
668,703	29,51
669,03	29,5
669,357	29,5
669,683	29,54
670,01	29,56
670,337	29,49
670,663	29,57
670,99	29,63
671,317	29,64
671,643	29,65
671,969	29,55
672,296	29,61
672,622	29,68
672,948	29,61
673,275	29,58
673,601	29,56
673,927	29,55
674,253	29,58
674,579	29,56
674,905	29,56
675,231	29,54
675,557	29,51
675,883	29,54
676,209	29,53
676,534	29,49
676,86	29,53
677,186	29,59
677,511	29,61
677,837	29,61
678,162	29,7
678,488	29,71
678,813	29,78
679,139	29,72
679,464	29,66
679,789	29,67
680,114	29,69
680,44	29,75
680,765	29,79
681,09	29,76
681,415	29,8
681,74	29,8
682,065	29,87
682,39	29,91
682,714	29,88
683,039	29,9
683,364	29,92
683,689	29,84
684,013	29,82
684,338	29,77
684,662	29,8
684,987	29,7
685,311	29,73
685,636	29,77
685,96	29,79
686,284	29,83
686,608	29,83
686,933	29,84
687,257	29,9
687,581	29,85
687,905	29,87
688,229	29,87
688,553	29,86
688,877	29,8
689,201	29,75
689,524	29,82
689,848	29,87
690,172	29,88
690,496	29,95
690,819	29,96
691,143	29,99
691,466	30,01
691,79	30,05
692,113	30,07
692,436	30,02
692,76	30,04
693,083	30,04
693,406	30,06
693,729	29,97
694,053	29,92
694,376	29,92
694,699	29,9
695,022	29,94
695,344	30
695,667	30,1
695,99	30,17
696,313	30,19
696,636	30,11
696,958	30,08
697,281	30,04
697,604	30,06
697,926	30
698,249	29,97
698,571	29,91
698,893	29,87
699,216	29,83
699,538	29,79
699,86	29,78
700,182	29,78
700,504	29,83
700,827	29,78
701,149	29,76
701,471	29,81
701,793	29,71
702,114	29,73
702,436	29,61
702,758	29,54
703,08	29,42
703,401	29,44
703,723	29,48
704,045	29,46
704,366	29,39
704,688	29,4
705,009	29,5
705,331	29,6
705,652	29,62
705,973	29,54
706,294	29,5
706,616	29,55
706,937	29,54
707,258	29,47
707,579	29,52
707,9	29,53
708,221	29,51
708,542	29,58
708,863	29,54
709,183	29,6
709,504	29,64
709,825	29,61
710,145	29,65
710,466	29,64
710,787	29,65
711,107	29,76
711,427	29,79
711,748	29,72
712,068	29,73
712,388	29,77
712,709	29,95
713,029	29,99
713,349	29,91
713,669	29,94
713,989	30,01
714,309	30,01
714,629	30,02
714,949	30,01
715,269	29,98
715,589	29,95
715,908	29,94
716,228	29,94
716,548	30,01
716,867	29,92
717,187	29,96
717,506	30,07
717,826	30,02
718,145	30,08
718,465	30,14
718,784	30,2
719,103	30,19
719,422	30,19
719,741	30,28
720,061	30,33
720,38	30,35
720,699	30,43
721,018	30,56
721,336	30,76
721,655	30,77
721,974	30,87
722,293	30,88
722,612	30,95
722,93	31,06
723,249	31,14
723,567	31,31
723,886	31,39
724,204	31,39
724,523	31,53
724,841	31,65
725,159	31,92
725,477	31,95
725,796	32,13
726,114	32,16
726,432	32,18
726,75	32,25
727,068	32,34
727,386	32,42
727,704	32,5
728,022	32,63
728,339	32,74
728,657	32,78
728,975	32,92
729,292	32,92
729,61	32,92
729,928	32,98
730,245	32,99
730,562	33,06
730,88	33,11
731,197	33,06
731,514	33,11
731,832	32,95
732,149	33,06
732,466	33,04
732,783	33,24
733,1	33,34
733,417	33,43
733,734	33,62
734,051	33,67
734,368	33,75
734,684	33,71
735,001	33,8
735,318	33,88
735,634	33,87
735,951	34,01
736,268	34,12
736,584	34,17
736,9	34,26
737,217	34,44
737,533	34,56
737,849	34,74
738,166	34,85
738,482	35
738,798	35,13
739,114	35,25
739,43	35,2
739,746	35,3
740,062	35,3
740,378	35,25
740,693	35,36
741,009	35,26
741,325	35,23
741,641	35,31
741,956	35,48
742,272	35,6
742,587	35,6
742,903	35,75
743,218	35,98
743,533	36,07
743,849	36,04
744,164	36,17
744,479	36,17
744,794	36,02
745,109	36,05
745,424	36
745,739	35,96
746,054	36,02
746,369	35,99
746,684	36,11
746,999	36,24
747,313	36,17
747,628	36,26
747,943	36,34
748,257	36,32
748,572	36,32
748,886	36,38
749,201	36,54
749,515	36,43
749,829	36,33
750,144	36,35
750,458	36,4
750,772	36,28
751,086	36,37
751,4	36,41
751,714	36,44
752,028	36,53
752,342	36,71
752,656	36,72
752,97	36,78
753,284	36,84
753,597	36,74
753,911	36,78
754,225	36,82
754,538	36,82
754,852	36,85
755,165	36,97
755,478	36,95
755,792	36,92
756,105	37,03
756,418	37
756,731	37,07
757,045	37,16
757,358	37,14
757,671	37,17
757,984	37,25
758,297	37,31
758,609	37,34
758,922	37,38
759,235	37,31
759,548	37,22
759,86	37,11
760,173	37
760,486	36,76
760,798	36,77
761,111	36,81
761,423	36,81
761,735	36,68
762,048	36,74
762,36	36,79
762,672	36,86
762,984	36,97
763,296	36,94
763,608	36,89
763,92	37,1
764,232	37,12
764,544	37,29
764,856	37,35
765,168	37,4
765,48	37,49
765,791	37,76
766,103	37,98
766,414	38,19
766,726	38,37
767,037	38,74
767,349	39,05
767,66	39,16
767,972	39,38
768,283	39,72
768,594	39,93
768,905	40,01
769,216	40,17
769,527	40,51
769,838	40,75
770,149	40,91
770,46	40,99
770,771	41,15
771,082	41,27
771,393	41,16
771,703	41,14
772,014	41
772,324	40,87
772,635	40,82
772,945	40,94
773,256	41,32
773,566	41,35
773,877	41,26
774,187	41,39
774,497	41,52
774,807	41,83
775,117	42,17
775,427	42,31
775,737	42,23
776,047	41,95
776,357	42,01
776,667	42,07
776,977	42,2
777,287	42,2
777,596	42,15
777,906	42,47
778,216	42,62
778,525	42,57
778,835	42,61
779,144	42,91
779,453	42,87
779,763	42,76
780,072	43,09
780,381	43,36
780,69	43,59
781	43,76
781,309	43,62
781,618	43,47
781,927	43,74
782,235	44,07
782,544	44,28
782,853	44,33
783,162	44,5
783,471	44,65
783,779	44,55
784,088	44,46
784,396	44,5
784,705	44,52
785,013	44,64
785,322	44,74
785,63	44,52
785,938	44,51
786,246	44,43
786,554	44,34
786,863	44,25
787,171	44,3
787,479	44,28
787,787	44,44
788,094	44,54
788,402	44,43
788,71	44,38
789,018	44,44
789,326	44,78
789,633	44,77
789,941	44,56
790,248	45,02
790,556	45,44
790,863	45,58
791,171	45,47
791,478	45,52
791,785	45,57
792,092	45,71
792,399	45,69
792,707	45,81
793,014	45,83
793,321	45,86
793,628	45,91
793,934	45,92
794,241	45,54
794,548	45,42
794,855	45,46
795,161	45,38
795,468	45,2
795,775	44,82
796,081	44,63
796,388	44,73
796,694	44,59
797	44,36
797,307	44,12
797,613	44,4
797,919	44,6
798,225	44,43
798,531	44,48
798,837	44,68
799,143	44,75
799,449	44,98
799,755	44,99
800,061	45,06
800,367	44,99
800,672	45,2
800,978	45
801,284	44,78
801,589	44,81
801,895	45,15
802,2	45,55
802,506	45,73
802,811	45,91
803,116	45,84
803,421	45,66
803,727	45,85
804,032	45,6
804,337	45,69
804,642	46,07
804,947	46,34
805,252	46,48
805,556	46,58
805,861	46,43
806,166	46,49
806,471	46,4
806,775	46,77
807,08	47,04
807,384	47,62
807,689	48,03
807,993	47,89
808,298	47,79
808,602	47,48
808,906	47,79
809,211	47,95
809,515	48,03
809,819	48,33
810,123	48,19
810,427	48,59
810,731	48,7
811,035	48,78
811,338	48,58
811,642	48,76
811,946	48,99
812,25	49,13
812,553	49,16
812,857	49,62
813,16	49,3
813,464	48,98
813,767	48,86
814,07	48,66
814,374	49,26
814,677	49,64
814,98	49,92
815,283	49,98
815,586	49,93
815,889	49,86
816,192	49,53
816,495	49,52
816,798	49,37
817,101	49,04
817,404	48,44
817,706	48,22
818,009	47,45
818,312	46,96
818,614	46,08
818,917	44,95
819,219	43,23
819,521	41,83
819,824	40,48
820,126	39,59
820,428	38,85
820,73	38,19
821,032	37,7
821,334	37,47
821,636	37,3
821,938	37,15
822,24	37,07
822,542	37,09
822,844	37
823,145	36,93
823,447	36,86
823,749	36,86
824,05	36,78
824,352	36,69
824,653	36,53
824,955	36,55
825,256	36,62
825,557	36,7
825,858	36,87
826,16	37,15
826,461	37,34
826,762	37,6
827,063	37,94
827,364	38,23
827,665	38,47
827,965	38,72
828,266	38,92
828,567	39,15
828,868	39,28
829,168	39,51
829,469	39,65
829,769	39,86
830,07	39,97
830,37	40,19
830,67	40,39
830,971	40,84
831,271	41,11
831,571	41,24
831,871	41,3
832,171	41,28
832,471	41,52
832,771	41,89
833,071	42,06
833,371	42,22
833,671	42,45
833,971	42,4
834,27	42,15
834,57	42,41
834,869	42,49
835,169	42,62
835,468	42,69
835,768	42,73
836,067	42,74
836,367	42,61
836,666	42,68
836,965	42,99
837,264	43,01
837,563	43,28
837,862	43,88
838,161	44,56
838,46	45,49
838,759	45,8
839,058	46,01
839,356	46,21
839,655	46,07
839,954	46,26
840,252	46,73
840,551	47,29
840,849	47,58
841,148	48,2
841,446	48,49
841,744	48,73
842,043	48,92
842,341	49,23
842,639	49,98
842,937	50,72
843,235	51,85
843,533	52,78
843,831	53,16
844,129	53,44
844,427	54,1
844,724	54,81
845,022	55,46
845,32	56,18
845,617	57,49
845,915	58,9
846,212	59,47
846,51	60,54
846,807	61,75
847,104	61,8
847,402	61,83
847,699	62,04
847,996	63,04
848,293	63,89
848,59	64,41
848,887	64,45
849,184	64,31
849,481	63,81
849,778	64,16
850,074	64,89
850,371	64,94
850,668	64,59
850,964	64,26
851,261	64,89
851,557	65,77
851,854	66,09
852,15	66,4
852,446	67,01
852,743	66,66
853,039	65,65
853,335	65,75
853,631	65,05
853,927	64,78
854,223	63,49
854,519	62,72
854,815	61,3
855,111	61,51
855,406	61,23
855,702	61,16
855,998	60,64
856,293	60,33
856,589	60,77
856,884	61,42
857,18	61,98
857,475	61,84
857,77	60,86
858,066	61,01
858,361	61,1
858,656	60,4
858,951	60,71
859,246	60,73
859,541	59,91
859,836	59,81
860,131	60,01
860,426	60,73
860,72	61,64
861,015	62,96
861,31	63,24
861,604	62,57
861,899	61,47
862,193	61,73
862,487	62,05
862,782	61,85
863,076	62,32
863,37	62,11
863,664	62,32
863,959	62,63
864,253	61,71
864,547	61,63
864,841	62,3
865,135	62,08
865,428	62,72
865,722	63,41
866,016	64,34
866,31	64,46
866,603	64,41
866,897	64,06
867,19	64,64
867,484	63,92
867,777	64,12
868,07	65,25
868,364	65,19
868,657	64,06
868,95	63,88
869,243	62,86
869,536	62,83
869,829	63,34
870,122	63,22
870,415	64,03
870,708	63,3
871	64,01
871,293	63,87
871,586	63,35
871,878	62,75
872,171	63,05
872,463	63,53
872,756	63,82
873,048	62,69
873,341	61,65
873,633	62,22
873,925	63,1
874,217	63,2
874,509	63,27
874,801	64,51
875,093	64,76
875,385	65,54
875,677	65,23
875,969	63,48
