Data from zc_m1_p1_Reflection_5,txt Node
Date: Wed Nov 25 16:29:19 GMT-03:00 2020
User: Darío
Spectrometer: USB2E3644
Trigger mode: 4
Integration Time (sec): 9,000000E-2
Scans to average: 10
Electric dark correction enabled: true
Nonlinearity correction enabled: false
Boxcar width: 10
XAxis mode: Wavelengths
Number of Pixels in Spectrum: 2048
>>>>>Begin Spectral Data<<<<<
178,315	101,02
178,696	107,34
179,076	106,54
179,457	124,14
179,838	201,56
180,218	194,32
180,599	126,4
180,979	56
181,36	4,59
181,74	0
182,121	19,93
182,501	45,17
182,881	64,83
183,262	80,29
183,642	90,27
184,022	92,33
184,402	99,42
184,783	103,93
185,163	108,34
185,543	108,79
185,923	114,68
186,303	118,32
186,683	119,86
187,063	124,12
187,443	129,11
187,823	130,15
188,203	126,71
188,583	124,05
188,963	123,04
189,343	124,7
189,723	127,06
190,102	130,54
190,482	131,66
190,862	130,04
191,242	128,4
191,621	129,83
192,001	131,2
192,38	129,03
192,76	128,22
193,14	125,54
193,519	121,87
193,898	118,84
194,278	117,48
194,657	116,96
195,037	114,05
195,416	113,68
195,795	114,63
196,175	115,56
196,554	115,43
196,933	115,66
197,312	114,7
197,692	114,29
198,071	114,45
198,45	115,45
198,829	115,54
199,208	116,96
199,587	117,17
199,966	117,65
200,345	118,26
200,724	117,26
201,103	117,45
201,482	119,35
201,86	120,28
202,239	118,9
202,618	118,99
202,997	120,39
203,375	119,09
203,754	119,01
204,133	120,24
204,511	119,9
204,89	120,24
205,269	120,51
205,647	120,77
206,026	120,71
206,404	120,06
206,782	119,06
207,161	116,92
207,539	115,45
207,918	113,23
208,296	111,24
208,674	113
209,052	114,84
209,431	114,85
209,809	112,72
210,187	112
210,565	111,81
210,943	112,88
211,321	112,95
211,699	113,16
212,077	114,97
212,455	118,53
212,833	119,42
213,211	120,64
213,589	124,39
213,967	124,63
214,345	124,44
214,722	127,42
215,1	126,81
215,478	126,35
215,855	129,11
216,233	133,32
216,611	130,92
216,988	129,95
217,366	127,93
217,743	130,23
218,121	134,08
218,498	135,63
218,876	132,11
219,253	133,03
219,631	131,94
220,008	127,31
220,385	125,03
220,762	123,41
221,14	124,94
221,517	121,91
221,894	121,61
222,271	126,52
222,648	130,42
223,025	138,87
223,402	145,76
223,78	143,78
224,157	140,56
224,533	145,17
224,91	140,38
225,287	140,96
225,664	145,13
226,041	148,71
226,418	151,13
226,795	154,72
227,171	157,02
227,548	162,57
227,925	170,36
228,301	169,26
228,678	175,27
229,055	173,24
229,431	174,17
229,808	174,96
230,184	173,74
230,561	170,77
230,937	165,92
231,313	164,1
231,69	171,08
232,066	172,84
232,442	175,22
232,819	189,53
233,195	195,56
233,571	194,72
233,947	197,22
234,323	200,32
234,699	208,06
235,075	207,95
235,451	210,51
235,827	210,94
236,203	223,89
236,579	231,82
236,955	253,81
237,331	276,73
237,707	303,24
238,083	333,79
238,459	414,05
238,834	702,79
239,21	1989,25
239,586	-2514,71
239,961	-838,03
240,337	-583,64
240,713	-431,33
241,088	-328,98
241,464	-279,16
241,839	-243,05
242,215	-195,71
242,59	-163,88
242,965	-120,06
243,341	-88,37
243,716	-69,66
244,091	-58,37
244,467	-49,63
244,842	-45,34
245,217	-41,99
245,592	-40,28
245,967	-41,66
246,343	-41,3
246,718	-41,38
247,093	-42,48
247,468	-42,78
247,843	-43,27
248,218	-42,24
248,593	-41,99
248,967	-40,7
249,342	-38,68
249,717	-38,29
250,092	-38,64
250,467	-37,82
250,841	-40,29
251,216	-44,33
251,591	-50,25
251,965	-55,22
252,34	-61,38
252,714	-63,53
253,089	-65,37
253,463	-65,55
253,838	-60,75
254,212	-59,86
254,587	-57,91
254,961	-55,73
255,335	-51,73
255,71	-43,56
256,084	-34,61
256,458	-28,53
256,832	-24,77
257,206	-22,82
257,581	-20,58
257,955	-19,72
258,329	-19,66
258,703	-18,62
259,077	-17,58
259,451	-16,48
259,825	-16,53
260,199	-16,8
260,572	-17,64
260,946	-18,82
261,32	-19,44
261,694	-19,46
262,068	-18,87
262,441	-18,41
262,815	-17,68
263,189	-17,53
263,562	-17,32
263,936	-18,5
264,309	-19,72
264,683	-20,98
265,056	-21,59
265,43	-21,74
265,803	-21,25
266,176	-20,83
266,55	-20,76
266,923	-20,43
267,296	-19,91
267,67	-18,96
268,043	-18,25
268,416	-16,92
268,789	-14,92
269,162	-13,65
269,535	-13,01
269,908	-12,82
270,281	-12,73
270,654	-12,7
271,027	-12,53
271,4	-13,33
271,773	-13,54
272,146	-13,83
272,519	-13,75
272,891	-13,58
273,264	-14,01
273,637	-14,08
274,01	-14,19
274,382	-14,45
274,755	-14,49
275,127	-15,09
275,5	-15,38
275,872	-14,89
276,245	-14,65
276,617	-15,49
276,99	-16,19
277,362	-16,2
277,734	-15,77
278,107	-15,44
278,479	-14,44
278,851	-13,6
279,223	-12,48
279,596	-11,79
279,968	-11,08
280,34	-10,73
280,712	-10,64
281,084	-10,24
281,456	-9,89
281,828	-9,36
282,2	-8,87
282,572	-8,25
282,944	-7,48
283,315	-6,87
283,687	-6,59
284,059	-6,33
284,431	-5,73
284,802	-5,1
285,174	-4,82
285,546	-4,68
285,917	-4,6
286,289	-4,81
286,66	-4,69
287,032	-4,51
287,403	-4,43
287,775	-4,21
288,146	-3,98
288,518	-3,87
288,889	-3,82
289,26	-3,68
289,632	-3,4
290,003	-3,37
290,374	-3,58
290,745	-3,92
291,116	-4,14
291,487	-4,23
291,858	-4,42
292,229	-4,41
292,6	-4,13
292,971	-3,85
293,342	-3,53
293,713	-3,11
294,084	-2,93
294,455	-2,97
294,826	-3,19
295,196	-2,98
295,567	-2,94
295,938	-2,91
296,308	-2,77
296,679	-2,51
297,05	-2,39
297,42	-2,49
297,791	-2,19
298,161	-2,08
298,532	-1,89
298,902	-1,86
299,272	-1,74
299,643	-1,52
300,013	-1,47
300,383	-1,58
300,754	-1,77
301,124	-2,36
301,494	-2,68
301,864	-2,82
302,234	-2,9
302,604	-2,54
302,974	-2,62
303,344	-2,7
303,714	-2,85
304,084	-2,77
304,454	-2,47
304,824	-2,43
305,194	-2,55
305,563	-2,6
305,933	-2,25
306,303	-1,85
306,673	-1,3
307,042	-1,05
307,412	-1,09
307,781	-0,92
308,151	-0,86
308,521	-0,73
308,89	-0,18
309,259	0,23
309,629	0,58
309,998	0,74
310,368	0,72
310,737	1
311,106	1,13
311,475	1,25
311,845	1,25
312,214	1,11
312,583	1,05
312,952	1,16
313,321	1,1
313,69	1,01
314,059	0,8
314,428	0,78
314,797	0,89
315,166	1,11
315,535	1,1
315,904	1,19
316,272	1,08
316,641	1,17
317,01	1,28
317,379	1,25
317,747	1,26
318,116	1,17
318,484	0,9
318,853	0,85
319,221	0,71
319,59	0,8
319,958	0,88
320,327	1,1
320,695	1,35
321,063	1,72
321,432	1,93
321,8	2,2
322,168	2,05
322,536	1,94
322,905	1,83
323,273	1,81
323,641	1,84
324,009	2,03
324,377	2,07
324,745	2,01
325,113	2,19
325,481	2,26
325,849	2,33
326,216	2,56
326,584	2,68
326,952	2,95
327,32	2,92
327,687	2,85
328,055	2,88
328,423	2,86
328,79	2,76
329,158	2,69
329,525	2,6
329,893	2,76
330,26	3,02
330,628	3,19
330,995	3,37
331,362	3,56
331,73	3,73
332,097	3,88
332,464	4
332,831	3,96
333,199	4,18
333,566	4,4
333,933	4,42
334,3	4,52
334,667	4,61
335,034	4,63
335,401	4,65
335,768	4,68
336,135	4,84
336,502	4,94
336,868	5,11
337,235	5,29
337,602	5,4
337,969	5,32
338,335	5,42
338,702	5,5
339,069	5,53
339,435	5,53
339,802	5,51
340,168	5,56
340,535	5,55
340,901	5,5
341,267	5,48
341,634	5,57
342	5,66
342,366	5,65
342,733	5,69
343,099	5,88
343,465	5,95
343,831	5,97
344,197	6,06
344,563	6,07
344,929	6,06
345,295	6,01
345,661	6,11
346,027	6,17
346,393	6,22
346,759	6,19
347,125	6,2
347,491	6,2
347,856	6,2
348,222	6,31
348,588	6,36
348,953	6,49
349,319	6,54
349,684	6,54
350,05	6,52
350,415	6,58
350,781	6,6
351,146	6,71
351,512	6,72
351,877	6,64
352,242	6,69
352,608	6,77
352,973	6,82
353,338	6,74
353,703	6,71
354,068	6,69
354,433	6,69
354,798	6,75
355,164	6,75
355,528	6,74
355,893	6,78
356,258	6,81
356,623	6,76
356,988	6,7
357,353	6,69
357,718	6,79
358,082	6,93
358,447	6,93
358,812	6,9
359,176	7
359,541	7,18
359,905	7,27
360,27	7,24
360,634	7,3
360,999	7,46
361,363	7,62
361,728	7,77
362,092	7,89
362,456	7,98
362,821	8,09
363,185	8,21
363,549	8,27
363,913	8,35
364,277	8,47
364,641	8,59
365,005	8,67
365,369	8,72
365,733	8,72
366,097	8,84
366,461	8,93
366,825	9,02
367,189	9,07
367,553	9,16
367,916	9,27
368,28	9,35
368,644	9,44
369,007	9,46
369,371	9,45
369,734	9,6
370,098	9,71
370,461	9,82
370,825	9,91
371,188	9,97
371,552	10,05
371,915	10,1
372,278	10,23
372,642	10,37
373,005	10,44
373,368	10,47
373,731	10,51
374,094	10,57
374,457	10,59
374,82	10,59
375,183	10,6
375,546	10,66
375,909	10,68
376,272	10,68
376,635	10,77
376,998	10,9
377,361	10,89
377,723	10,85
378,086	10,79
378,449	10,81
378,811	10,84
379,174	10,89
379,537	10,9
379,899	10,85
380,262	10,82
380,624	10,83
380,987	10,88
381,349	10,95
381,711	10,98
382,074	11,01
382,436	11,04
382,798	11,16
383,16	11,19
383,522	11,2
383,884	11,24
384,247	11,23
384,609	11,24
384,971	11,26
385,333	11,32
385,695	11,39
386,056	11,4
386,418	11,43
386,78	11,45
387,142	11,45
387,504	11,47
387,865	11,47
388,227	11,52
388,589	11,55
388,95	11,57
389,312	11,55
389,673	11,58
390,035	11,56
390,396	11,49
390,758	11,48
391,119	11,53
391,48	11,53
391,842	11,55
392,203	11,54
392,564	11,52
392,925	11,54
393,286	11,53
393,648	11,54
394,009	11,55
394,37	11,55
394,731	11,57
395,092	11,57
395,452	11,6
395,813	11,6
396,174	11,62
396,535	11,65
396,896	11,68
397,257	11,67
397,617	11,72
397,978	11,81
398,338	11,86
398,699	11,87
399,06	11,94
399,42	11,94
399,781	11,93
400,141	11,94
400,501	11,95
400,862	11,98
401,222	11,98
401,582	11,97
401,943	11,94
402,303	11,95
402,663	11,97
403,023	11,95
403,383	11,98
403,743	11,97
404,103	11,95
404,463	11,96
404,823	12,01
405,183	12,05
405,543	12,02
405,903	12
406,262	11,98
406,622	11,92
406,982	11,91
407,342	11,94
407,701	11,94
408,061	11,99
408,42	11,99
408,78	12
409,139	12,03
409,499	12,05
409,858	12,09
410,217	12,11
410,577	12,15
410,936	12,13
411,295	12,13
411,655	12,1
412,014	12,11
412,373	12,09
412,732	12,01
413,091	11,97
413,45	11,94
413,809	11,95
414,168	11,93
414,527	11,89
414,886	11,85
415,245	11,82
415,603	11,74
415,962	11,72
416,321	11,7
416,679	11,66
417,038	11,62
417,397	11,54
417,755	11,51
418,114	11,46
418,472	11,42
418,831	11,4
419,189	11,39
419,547	11,35
419,906	11,33
420,264	11,32
420,622	11,31
420,981	11,3
421,339	11,28
421,697	11,27
422,055	11,29
422,413	11,29
422,771	11,29
423,129	11,32
423,487	11,33
423,845	11,34
424,203	11,36
424,56	11,39
424,918	11,43
425,276	11,47
425,634	11,51
425,991	11,57
426,349	11,61
426,707	11,65
427,064	11,69
427,422	11,73
427,779	11,79
428,137	11,84
428,494	11,91
428,851	11,95
429,209	11,97
429,566	11,98
429,923	12
430,28	12,03
430,637	12,06
430,995	12,03
431,352	12,04
431,709	12,04
432,066	12,05
432,423	12,05
432,78	12,06
433,137	12,07
433,493	12,05
433,85	12,06
434,207	12,02
434,564	12,03
434,92	12,02
435,277	12,01
435,634	12,02
435,99	12
436,347	11,99
436,703	12
437,06	12
437,416	11,99
437,773	11,97
438,129	11,95
438,485	11,95
438,841	11,96
439,198	11,95
439,554	11,95
439,91	11,96
440,266	11,95
440,622	11,93
440,978	11,94
441,334	11,92
441,69	11,92
442,046	11,89
442,402	11,87
442,758	11,83
443,113	11,81
443,469	11,79
443,825	11,79
444,181	11,79
444,536	11,78
444,892	11,79
445,247	11,81
445,603	11,82
445,958	11,83
446,314	11,84
446,669	11,85
447,025	11,85
447,38	11,85
447,735	11,85
448,09	11,86
448,446	11,85
448,801	11,85
449,156	11,89
449,511	11,93
449,866	11,97
450,221	12,04
450,576	12,08
450,931	12,14
451,286	12,17
451,641	12,22
451,995	12,24
452,35	12,25
452,705	12,25
453,06	12,25
453,414	12,27
453,769	12,24
454,123	12,27
454,478	12,28
454,832	12,29
455,187	12,29
455,541	12,29
455,896	12,31
456,25	12,3
456,604	12,27
456,958	12,24
457,313	12,22
457,667	12,21
458,021	12,21
458,375	12,21
458,729	12,2
459,083	12,2
459,437	12,23
459,791	12,22
460,145	12,24
460,499	12,25
460,852	12,26
461,206	12,27
461,56	12,25
461,914	12,25
462,267	12,26
462,621	12,28
462,974	12,29
463,328	12,3
463,681	12,32
464,035	12,36
464,388	12,38
464,742	12,41
465,095	12,42
465,448	12,46
465,801	12,46
466,155	12,49
466,508	12,5
466,861	12,49
467,214	12,5
467,567	12,5
467,92	12,52
468,273	12,53
468,626	12,54
468,979	12,56
469,332	12,58
469,684	12,57
470,037	12,58
470,39	12,59
470,743	12,6
471,095	12,6
471,448	12,61
471,8	12,64
472,153	12,66
472,505	12,69
472,858	12,68
473,21	12,68
473,562	12,71
473,915	12,71
474,267	12,72
474,619	12,73
474,971	12,73
475,324	12,71
475,676	12,7
476,028	12,68
476,38	12,66
476,732	12,68
477,084	12,67
477,436	12,65
477,787	12,64
478,139	12,64
478,491	12,62
478,843	12,61
479,195	12,59
479,546	12,56
479,898	12,52
480,249	12,45
480,601	12,43
480,952	12,37
481,304	12,33
481,655	12,31
482,007	12,3
482,358	12,29
482,709	12,3
483,061	12,28
483,412	12,27
483,763	12,26
484,114	12,24
484,465	12,22
484,816	12,22
485,167	12,22
485,518	12,21
485,869	12,21
486,22	12,21
486,571	12,22
486,922	12,22
487,272	12,22
487,623	12,23
487,974	12,23
488,324	12,24
488,675	12,26
489,025	12,28
489,376	12,3
489,726	12,3
490,077	12,31
490,427	12,34
490,778	12,35
491,128	12,38
491,478	12,41
491,828	12,46
492,179	12,49
492,529	12,53
492,879	12,55
493,229	12,57
493,579	12,59
493,929	12,58
494,279	12,61
494,629	12,6
494,979	12,62
495,328	12,65
495,678	12,7
496,028	12,72
496,378	12,73
496,727	12,75
497,077	12,77
497,426	12,8
497,776	12,79
498,125	12,81
498,475	12,81
498,824	12,81
499,174	12,81
499,523	12,8
499,872	12,8
500,221	12,8
500,571	12,8
500,92	12,82
501,269	12,82
501,618	12,82
501,967	12,84
502,316	12,87
502,665	12,88
503,014	12,9
503,363	12,92
503,711	12,9
504,06	12,92
504,409	12,92
504,758	12,88
505,106	12,89
505,455	12,91
505,803	12,92
506,152	12,89
506,5	12,9
506,849	12,91
507,197	12,91
507,546	12,92
507,894	12,92
508,242	12,92
508,59	12,91
508,939	12,91
509,287	12,91
509,635	12,91
509,983	12,91
510,331	12,91
510,679	12,92
511,027	12,94
511,375	12,93
511,723	12,96
512,07	13
512,418	13
512,766	13,01
513,114	13,03
513,461	13,06
513,809	13,07
514,156	13,07
514,504	13,05
514,851	13,02
515,199	13,02
515,546	13,01
515,893	13,03
516,241	13,03
516,588	13,04
516,935	13,04
517,282	13,05
517,63	13,06
517,977	13,08
518,324	13,06
518,671	13,08
519,018	13,08
519,365	13,05
519,711	13,06
520,058	13,06
520,405	13,03
520,752	13,04
521,099	13,05
521,445	13,05
521,792	13,08
522,138	13,09
522,485	13,1
522,832	13,14
523,178	13,12
523,524	13,13
523,871	13,13
524,217	13,14
524,563	13,12
524,91	13,07
525,256	13,03
525,602	13,01
525,948	12,99
526,294	12,97
526,64	12,96
526,986	12,95
527,332	12,95
527,678	12,94
528,024	12,93
528,37	12,94
528,716	12,93
529,061	12,92
529,407	12,92
529,753	12,92
530,098	12,89
530,444	12,89
530,789	12,9
531,135	12,89
531,48	12,89
531,826	12,9
532,171	12,93
532,516	12,94
532,862	12,97
533,207	12,97
533,552	12,98
533,897	13
534,242	13,02
534,587	13,03
534,932	13,06
535,277	13,07
535,622	13,07
535,967	13,08
536,312	13,12
536,657	13,13
537,001	13,17
537,346	13,19
537,691	13,18
538,035	13,17
538,38	13,17
538,724	13,17
539,069	13,16
539,413	13,14
539,758	13,13
540,102	13,13
540,446	13,14
540,791	13,14
541,135	13,14
541,479	13,14
541,823	13,12
542,167	13,12
542,512	13,13
542,856	13,11
543,2	13,1
543,543	13,09
543,887	13,1
544,231	13,11
544,575	13,12
544,919	13,15
545,262	13,17
545,606	13,19
545,95	13,19
546,293	13,22
546,637	13,25
546,98	13,29
547,324	13,31
547,667	13,33
548,011	13,34
548,354	13,36
548,697	13,35
549,04	13,38
549,384	13,36
549,727	13,35
550,07	13,39
550,413	13,41
550,756	13,4
551,099	13,39
551,442	13,36
551,785	13,35
552,128	13,35
552,47	13,35
552,813	13,34
553,156	13,34
553,499	13,32
553,841	13,26
554,184	13,24
554,526	13,26
554,869	13,25
555,211	13,25
555,554	13,2
555,896	13,22
556,238	13,22
556,581	13,25
556,923	13,22
557,265	13,22
557,607	13,22
557,949	13,23
558,291	13,23
558,633	13,21
558,975	13,18
559,317	13,15
559,659	13,11
560,001	13,09
560,343	13,06
560,685	13,05
561,026	13,07
561,368	13,06
561,71	13
562,051	12,99
562,393	13
562,734	12,99
563,076	12,98
563,417	12,95
563,759	12,91
564,1	12,92
564,441	12,87
564,782	12,84
565,124	12,83
565,465	12,78
565,806	12,79
566,147	12,8
566,488	12,79
566,829	12,81
567,17	12,82
567,511	12,83
567,851	12,83
568,192	12,81
568,533	12,79
568,874	12,8
569,214	12,81
569,555	12,77
569,895	12,77
570,236	12,75
570,576	12,73
570,917	12,72
571,257	12,72
571,598	12,73
571,938	12,73
572,278	12,72
572,618	12,74
572,959	12,75
573,299	12,73
573,639	12,73
573,979	12,73
574,319	12,72
574,659	12,72
574,999	12,71
575,339	12,68
575,678	12,66
576,018	12,63
576,358	12,61
576,698	12,61
577,037	12,54
577,377	12,51
577,716	12,52
578,056	12,52
578,395	12,49
578,735	12,45
579,074	12,41
579,413	12,39
579,753	12,37
580,092	12,34
580,431	12,3
580,77	12,29
581,109	12,27
581,448	12,23
581,787	12,17
582,126	12,15
582,465	12,18
582,804	12,21
583,143	12,24
583,482	12,22
583,82	12,19
584,159	12,24
584,498	12,29
584,836	12,3
585,175	12,29
585,514	12,3
585,852	12,3
586,19	12,35
586,529	12,37
586,867	12,37
587,205	12,4
587,544	12,44
587,882	12,45
588,22	12,46
588,558	12,5
588,896	12,52
589,234	12,53
589,572	12,54
589,91	12,54
590,248	12,54
590,586	12,55
590,924	12,54
591,262	12,53
591,599	12,49
591,937	12,47
592,275	12,49
592,612	12,47
592,95	12,5
593,287	12,51
593,625	12,51
593,962	12,54
594,299	12,55
594,637	12,58
594,974	12,58
595,311	12,56
595,648	12,56
595,985	12,56
596,322	12,56
596,659	12,57
596,996	12,56
597,333	12,54
597,67	12,53
598,007	12,56
598,344	12,56
598,681	12,61
599,017	12,61
599,354	12,61
599,691	12,63
600,027	12,65
600,364	12,64
600,7	12,64
601,037	12,64
601,373	12,64
601,71	12,65
602,046	12,69
602,382	12,7
602,718	12,7
603,054	12,71
603,391	12,74
603,727	12,73
604,063	12,75
604,399	12,75
604,735	12,77
605,071	12,77
605,406	12,78
605,742	12,78
606,078	12,81
606,414	12,83
606,749	12,85
607,085	12,82
607,421	12,84
607,756	12,84
608,092	12,82
608,427	12,81
608,762	12,77
609,098	12,75
609,433	12,73
609,768	12,74
610,104	12,71
610,439	12,67
610,774	12,69
611,109	12,65
611,444	12,66
611,779	12,65
612,114	12,66
612,449	12,66
612,784	12,64
613,118	12,6
613,453	12,55
613,788	12,5
614,123	12,49
614,457	12,42
614,792	12,42
615,126	12,37
615,461	12,33
615,795	12,33
616,13	12,31
616,464	12,33
616,798	12,33
617,132	12,38
617,467	12,42
617,801	12,39
618,135	12,4
618,469	12,4
618,803	12,43
619,137	12,41
619,471	12,4
619,805	12,4
620,139	12,41
620,472	12,45
620,806	12,49
621,14	12,48
621,473	12,5
621,807	12,48
622,141	12,58
622,474	12,59
622,808	12,61
623,141	12,63
623,474	12,64
623,808	12,65
624,141	12,67
624,474	12,7
624,807	12,71
625,141	12,7
625,474	12,7
625,807	12,71
626,14	12,73
626,473	12,78
626,806	12,77
627,138	12,78
627,471	12,78
627,804	12,77
628,137	12,8
628,469	12,81
628,802	12,84
629,135	12,82
629,467	12,86
629,8	12,88
630,132	12,86
630,465	12,88
630,797	12,89
631,129	12,88
631,461	12,83
631,794	12,85
632,126	12,87
632,458	12,88
632,79	12,88
633,122	12,88
633,454	12,86
633,786	12,84
634,118	12,86
634,45	12,87
634,781	12,91
635,113	12,91
635,445	12,92
635,777	12,9
636,108	12,9
636,44	12,87
636,771	12,86
637,103	12,86
637,434	12,85
637,765	12,82
638,097	12,84
638,428	12,82
638,759	12,8
639,09	12,83
639,422	12,81
639,753	12,81
640,084	12,78
640,415	12,77
640,746	12,8
641,077	12,79
641,407	12,78
641,738	12,74
642,069	12,75
642,4	12,72
642,73	12,72
643,061	12,69
643,392	12,74
643,722	12,79
644,053	12,8
644,383	12,79
644,713	12,82
645,044	12,78
645,374	12,81
645,704	12,77
646,034	12,77
646,365	12,78
646,695	12,77
647,025	12,77
647,355	12,78
647,685	12,8
648,015	12,79
648,344	12,79
648,674	12,78
649,004	12,82
649,334	12,86
649,663	12,9
649,993	12,96
650,323	12,94
650,652	12,87
650,982	12,88
651,311	12,89
651,64	12,87
651,97	12,87
652,299	12,88
652,628	12,94
652,958	12,92
653,287	12,91
653,616	12,9
653,945	12,92
654,274	12,94
654,603	12,92
654,932	12,95
655,261	12,99
655,589	13,05
655,918	13,07
656,247	13,11
656,576	13,14
656,904	13,17
657,233	13,2
657,561	13,23
657,89	13,24
658,218	13,25
658,547	13,27
658,875	13,28
659,203	13,3
659,532	13,28
659,86	13,31
660,188	13,34
660,516	13,36
660,844	13,36
661,172	13,38
661,5	13,38
661,828	13,37
662,156	13,35
662,484	13,3
662,811	13,22
663,139	13,17
663,467	13,11
663,794	13,06
664,122	13,01
664,45	13,01
664,777	13,02
665,104	13,03
665,432	12,99
665,759	13,02
666,086	13,07
666,414	13,12
666,741	13,06
667,068	13,05
667,395	13,06
667,722	13,05
668,049	13,01
668,376	13,01
668,703	13,03
669,03	13,06
669,357	13,09
669,683	13,14
670,01	13,12
670,337	13,12
670,663	13,16
670,99	13,21
671,317	13,2
671,643	13,21
671,969	13,19
672,296	13,26
672,622	13,28
672,948	13,25
673,275	13,23
673,601	13,29
673,927	13,27
674,253	13,26
674,579	13,31
674,905	13,34
675,231	13,34
675,557	13,39
675,883	13,34
676,209	13,37
676,534	13,34
676,86	13,41
677,186	13,41
677,511	13,39
677,837	13,41
678,162	13,46
678,488	13,45
678,813	13,45
679,139	13,43
679,464	13,42
679,789	13,41
680,114	13,42
680,44	13,42
680,765	13,43
681,09	13,43
681,415	13,4
681,74	13,41
682,065	13,4
682,39	13,38
682,714	13,41
683,039	13,41
683,364	13,47
683,689	13,43
684,013	13,44
684,338	13,45
684,662	13,44
684,987	13,43
685,311	13,47
685,636	13,45
685,96	13,48
686,284	13,47
686,608	13,48
686,933	13,51
687,257	13,5
687,581	13,54
687,905	13,57
688,229	13,61
688,553	13,55
688,877	13,58
689,201	13,6
689,524	13,63
689,848	13,67
690,172	13,68
690,496	13,69
690,819	13,69
691,143	13,68
691,466	13,68
691,79	13,64
692,113	13,62
692,436	13,68
692,76	13,68
693,083	13,71
693,406	13,74
693,729	13,69
694,053	13,65
694,376	13,66
694,699	13,67
695,022	13,65
695,344	13,71
695,667	13,78
695,99	13,81
696,313	13,82
696,636	13,79
696,958	13,74
697,281	13,76
697,604	13,83
697,926	13,82
698,249	13,84
698,571	13,86
698,893	13,79
699,216	13,73
699,538	13,68
699,86	13,63
700,182	13,59
700,504	13,66
700,827	13,65
701,149	13,58
701,471	13,61
701,793	13,63
702,114	13,64
702,436	13,58
702,758	13,56
703,08	13,49
703,401	13,45
703,723	13,51
704,045	13,44
704,366	13,41
704,688	13,44
705,009	13,45
705,331	13,55
705,652	13,72
705,973	13,79
706,294	13,92
706,616	14,05
706,937	14,08
707,258	13,95
707,579	14,07
707,9	14,17
708,221	14,16
708,542	14,18
708,863	14,23
709,183	14,21
709,504	14,18
709,825	14,24
710,145	14,28
710,466	14,32
710,787	14,34
711,107	14,31
711,427	14,26
711,748	14,28
712,068	14,29
712,388	14,25
712,709	14,32
713,029	14,26
713,349	14,25
713,669	14,31
713,989	14,35
714,309	14,38
714,629	14,42
714,949	14,4
715,269	14,36
715,589	14,37
715,908	14,45
716,228	14,52
716,548	14,55
716,867	14,62
717,187	14,69
717,506	14,8
717,826	14,95
718,145	15,11
718,465	15,14
718,784	15,22
719,103	15,34
719,422	15,43
719,741	15,49
720,061	15,48
720,38	15,52
720,699	15,68
721,018	15,73
721,336	15,76
721,655	15,94
721,974	16,08
722,293	16,18
722,612	16,2
722,93	16,19
723,249	16,2
723,567	16,28
723,886	16,36
724,204	16,45
724,523	16,45
724,841	16,51
725,159	16,57
725,477	16,61
725,796	16,66
726,114	16,74
726,432	16,95
726,75	17,07
727,068	17,15
727,386	17,17
727,704	17,28
728,022	17,35
728,339	17,43
728,657	17,62
728,975	17,76
729,292	17,87
729,61	17,96
729,928	18,09
730,245	18,15
730,562	18,15
730,88	18,19
731,197	18,27
731,514	18,34
731,832	18,42
732,149	18,46
732,466	18,52
732,783	18,65
733,1	18,75
733,417	18,89
733,734	19,06
734,051	19,16
734,368	19,26
734,684	19,4
735,001	19,49
735,318	19,56
735,634	19,62
735,951	19,64
736,268	19,72
736,584	19,73
736,9	19,77
737,217	19,99
737,533	20,11
737,849	20,19
738,166	20,37
738,482	20,44
738,798	20,6
739,114	20,7
739,43	20,74
739,746	20,72
740,062	20,78
740,378	20,81
740,693	20,86
741,009	20,88
741,325	20,9
741,641	20,97
741,956	20,98
742,272	21
742,587	21,1
742,903	21,22
743,218	21,42
743,533	21,71
743,849	21,74
744,164	21,87
744,479	22,02
744,794	21,87
745,109	21,93
745,424	21,93
745,739	22,01
746,054	22,07
746,369	22,18
746,684	22,27
746,999	22,41
747,313	22,66
747,628	22,68
747,943	22,72
748,257	22,72
748,572	22,77
748,886	22,82
749,201	22,92
749,515	23
749,829	22,98
750,144	22,8
750,458	22,82
750,772	22,68
751,086	22,69
751,4	22,83
751,714	22,9
752,028	23
752,342	23,06
752,656	23,12
752,97	23,12
753,284	23,18
753,597	23,1
753,911	23,04
754,225	23,16
754,538	23,32
754,852	23,42
755,165	23,46
755,478	23,5
755,792	23,64
756,105	23,77
756,418	23,92
756,731	23,99
757,045	24,1
757,358	24,32
757,671	24,38
757,984	24,49
758,297	24,51
758,609	24,59
758,922	24,61
759,235	24,57
759,548	24,5
759,86	24,39
760,173	24,31
760,486	24,1
760,798	23,79
761,111	23,54
761,423	23,41
761,735	23,24
762,048	23,24
762,36	23,15
762,672	23,11
762,984	23,07
763,296	23,18
763,608	23,1
763,92	23,12
764,232	23,17
764,544	23,31
764,856	23,49
765,168	23,54
765,48	23,63
765,791	23,84
766,103	24,15
766,414	24,3
766,726	24,51
767,037	24,91
767,349	25,45
767,66	25,99
767,972	26,5
768,283	27,18
768,594	27,59
768,905	27,96
769,216	28,17
769,527	28,46
769,838	28,72
770,149	29,13
770,46	29,36
770,771	29,69
771,082	29,96
771,393	30,07
771,703	30,25
772,014	30,49
772,324	30,46
772,635	30,08
772,945	30,17
773,256	30,5
773,566	30,59
773,877	30,61
774,187	30,69
774,497	30,82
774,807	30,8
775,117	30,9
775,427	31,18
775,737	31,42
776,047	31,51
776,357	31,7
776,667	31,68
776,977	31,77
777,287	31,71
777,596	31,65
777,906	31,81
778,216	31,84
778,525	31,65
778,835	31,74
779,144	32,26
779,453	32,56
779,763	32,53
780,072	32,59
780,381	32,78
780,69	32,99
781	32,91
781,309	32,83
781,618	32,93
781,927	32,98
782,235	33,25
782,544	33,64
782,853	33,7
783,162	34,05
783,471	34,33
783,779	34,4
784,088	34,32
784,396	34,22
784,705	34,13
785,013	34,21
785,322	34,34
785,63	34,02
785,938	33,83
786,246	33,73
786,554	33,67
786,863	33,25
787,171	33,03
787,479	32,97
787,787	33,17
788,094	33,32
788,402	33,07
788,71	32,82
789,018	32,48
789,326	32,47
789,633	32,32
789,941	32,02
790,248	32,14
790,556	32,19
790,863	32,43
791,171	32,9
791,478	33,31
791,785	33,4
792,092	33,81
792,399	33,91
792,707	34,25
793,014	34,24
793,321	34,61
793,628	34,73
793,934	34,91
794,241	34,85
794,548	34,53
794,855	34,54
795,161	34,59
795,468	34,74
795,775	34,83
796,081	35
796,388	35,32
796,694	35,29
797	35,44
797,307	35,44
797,613	35,37
797,919	35,35
798,225	35,36
798,531	35,51
798,837	35,73
799,143	35,84
799,449	36,15
799,755	36,4
800,061	36,33
800,367	36,31
800,672	36,44
800,978	36,74
801,284	36,99
801,589	37,08
801,895	37,24
802,2	37,14
802,506	37,25
802,811	37,14
803,116	37,23
803,421	37,08
803,727	36,87
804,032	36,54
804,337	36,49
804,642	36,37
804,947	36,1
805,252	35,91
805,556	35,79
805,861	35,87
806,166	36,06
806,471	36,11
806,775	36,06
807,08	36,09
807,384	36,09
807,689	36,1
807,993	36,23
808,298	36,36
808,602	36,53
808,906	36,47
809,211	36,59
809,515	36,6
809,819	37,03
810,123	37,37
810,427	37,72
810,731	37,94
811,035	38,29
811,338	38,68
811,642	39,17
811,946	39,14
812,25	39,01
812,553	38,73
812,857	38,96
813,16	39,09
813,464	39,2
813,767	39,51
814,07	39,58
814,374	39,42
814,677	39,31
814,98	39,46
815,283	39,42
815,586	39,27
815,889	38,92
816,192	38,55
816,495	38,26
816,798	37,98
817,101	37,68
817,404	37,24
817,706	36,35
818,009	35,72
818,312	35,28
818,614	34,31
818,917	32,79
819,219	30,98
819,521	29,34
819,824	27,66
820,126	26,35
820,428	25,45
820,73	25,01
821,032	24,59
821,334	24,16
821,636	23,94
821,938	23,86
822,24	23,87
822,542	23,82
822,844	23,77
823,145	23,73
823,447	23,61
823,749	23,57
824,05	23,53
824,352	23,49
824,653	23,38
824,955	23,39
825,256	23,53
825,557	23,75
825,858	23,98
826,16	24,35
826,461	24,72
826,762	25,14
827,063	25,53
827,364	25,94
827,665	26,49
827,965	26,89
828,266	27,22
828,567	27,54
828,868	27,79
829,168	28,13
829,469	28,47
829,769	28,76
830,07	29,02
830,37	29,53
830,67	29,9
830,971	30,29
831,271	30,72
831,571	31,11
831,871	31,15
832,171	31,38
832,471	31,5
832,771	31,8
833,071	32
833,371	32,05
833,671	32,37
833,971	32,49
834,27	32,5
834,57	32,44
834,869	32,41
835,169	32,55
835,468	32,5
835,768	32,48
836,067	32,57
836,367	32,95
836,666	33,27
836,965	33,71
837,264	34,33
837,563	34,97
837,862	35,39
838,161	36,36
838,46	37,63
838,759	38,45
839,058	39,09
839,356	39,92
839,655	40,47
839,954	40,94
840,252	41,37
840,551	42,26
840,849	43,1
841,148	43,81
841,446	44,32
841,744	44,86
842,043	45,3
842,341	45,73
842,639	45,64
842,937	45,5
843,235	45,9
843,533	46,67
843,831	47,1
844,129	47,89
844,427	49,14
844,724	49,39
845,022	50,3
845,32	51,56
845,617	52,03
845,915	53,03
846,212	53,28
846,51	53,88
846,807	53,84
847,104	54,08
847,402	53,79
847,699	54,31
847,996	55,09
848,293	55,51
848,59	55,99
848,887	56,3
849,184	57,21
849,481	56,83
849,778	56,47
850,074	57,5
850,371	58,33
850,668	57,91
850,964	57,89
851,261	57,91
851,557	58,14
851,854	58,75
852,15	59,03
852,446	59,37
852,743	59,43
853,039	59,3
853,335	59,87
853,631	60,76
853,927	60,06
854,223	59,68
854,519	59,29
854,815	58,55
855,111	58,56
855,406	58,11
855,702	58,88
855,998	59,45
856,293	59,24
856,589	59,17
856,884	59,76
857,18	59,64
857,475	59,86
857,77	59,37
858,066	59,9
858,361	60,66
858,656	61,9
858,951	63,69
859,246	64,56
859,541	64,67
859,836	64,65
860,131	65,61
860,426	65,62
860,72	65,92
861,015	66,28
861,31	66,18
861,604	65,87
861,899	65,23
862,193	65,03
862,487	65,15
862,782	65,3
863,076	65,89
863,37	66,59
863,664	67,12
863,959	67,23
864,253	66,74
864,547	65,91
864,841	64,56
865,135	62,52
865,428	62,6
865,722	62,07
866,016	61,53
866,31	60,68
866,603	59,92
866,897	59,53
867,19	60,88
867,484	61,04
867,777	61,37
868,07	62,09
868,364	62,74
868,657	63,36
868,95	63,27
869,243	62,33
869,536	61,98
869,829	61,67
870,122	61,89
870,415	61,78
870,708	62,36
871	61,98
871,293	62,11
871,586	61,77
871,878	61,8
872,171	62,49
872,463	63,15
872,756	63,59
873,048	63,68
873,341	62,5
873,633	62,35
873,925	62,54
874,217	61,96
874,509	61,12
874,801	59,8
875,093	59,2
875,385	58,86
875,677	58,5
875,969	58,4
