Data from zc_m4_p3_Reflection_6,txt Node
Date: Wed Nov 25 17:02:29 GMT-03:00 2020
User: Darío
Spectrometer: USB2E3644
Trigger mode: 4
Integration Time (sec): 9,000000E-2
Scans to average: 10
Electric dark correction enabled: true
Nonlinearity correction enabled: false
Boxcar width: 10
XAxis mode: Wavelengths
Number of Pixels in Spectrum: 2048
>>>>>Begin Spectral Data<<<<<
178,315	67,96
178,696	78,65
179,076	115,71
179,457	131,72
179,838	116,81
180,218	125,95
180,599	162,28
180,979	16,13
181,36	740
181,74	121,74
182,121	83,21
182,501	106,58
182,881	105,81
183,262	96,91
183,642	100,24
184,022	108,24
184,402	107,32
184,783	103,64
185,163	108,98
185,543	112,08
185,923	114,91
186,303	118,56
186,683	119,37
187,063	121,22
187,443	119,16
187,823	117,8
188,203	116,37
188,583	113,89
188,963	112,06
189,343	111,83
189,723	110,41
190,102	111,99
190,482	112,5
190,862	113,13
191,242	115,44
191,621	116,35
192,001	117,24
192,38	118,44
192,76	118,4
193,14	116,08
193,519	114,81
193,898	114,03
194,278	112,18
194,657	112,57
195,037	113,33
195,416	116,16
195,795	115,64
196,175	117,51
196,554	121,12
196,933	121,34
197,312	120,53
197,692	123,13
198,071	121,99
198,45	120,92
198,829	121,52
199,208	120,76
199,587	119,9
199,966	117,81
200,345	117,2
200,724	118,38
201,103	119,58
201,482	120,86
201,86	122,96
202,239	125,1
202,618	125,65
202,997	125,89
203,375	125,96
203,754	129,18
204,133	128,97
204,511	129,47
204,89	131,39
205,269	134,38
205,647	135,6
206,026	139,73
206,404	139,83
206,782	136,32
207,161	136,22
207,539	137,58
207,918	138,88
208,296	139,26
208,674	141,05
209,052	141,44
209,431	141,81
209,809	139,61
210,187	138,33
210,565	138,79
210,943	139,94
211,321	140,56
211,699	141,8
212,077	143,62
212,455	140,24
212,833	138,45
213,211	137,88
213,589	136,69
213,967	135,96
214,345	134,78
214,722	135,17
215,1	132,31
215,478	129,35
215,855	129,72
216,233	131,74
216,611	129,93
216,988	133,28
217,366	132,81
217,743	129,94
218,121	128,07
218,498	128,7
218,876	128,35
219,253	127,74
219,631	127,41
220,008	128,67
220,385	134,66
220,762	137,98
221,14	136,77
221,517	134,4
221,894	134,67
222,271	139,5
222,648	144,2
223,025	150,63
223,402	157,69
223,78	159
224,157	158,67
224,533	161,95
224,91	160,19
225,287	160,79
225,664	164,48
226,041	164,51
226,418	166
226,795	171,53
227,171	174,53
227,548	173,74
227,925	171,79
228,301	167,77
228,678	170,57
229,055	174,02
229,431	179,23
229,808	179,04
230,184	180,69
230,561	187,47
230,937	188,82
231,313	187,31
231,69	189,6
232,066	190,79
232,442	194,9
232,819	194,54
233,195	196,14
233,571	204,74
233,947	212,71
234,323	208,71
234,699	209,25
235,075	214,98
235,451	224,51
235,827	234,95
236,203	241,66
236,579	240,74
236,955	252,01
237,331	271
237,707	301,63
238,083	353,43
238,459	422,44
238,834	610,28
239,21	1054,91
239,586	4386,73
239,961	-2926,04
240,337	-1866,04
240,713	-829,98
241,088	-597,03
241,464	-526,78
241,839	-454,52
242,215	-312,83
242,59	-236,17
242,965	-162,68
243,341	-113,8
243,716	-85,24
244,091	-69,99
244,467	-60,12
244,842	-53,66
245,217	-51,57
245,592	-49,89
245,967	-51,9
246,343	-52,06
246,718	-54,8
247,093	-55,76
247,468	-56,82
247,843	-57,11
248,218	-54,43
248,593	-52,84
248,967	-50,21
249,342	-48,07
249,717	-47,39
250,092	-48,55
250,467	-49,91
250,841	-52,49
251,216	-59,24
251,591	-67,43
251,965	-77,17
252,34	-84,85
252,714	-90,03
253,089	-89,17
253,463	-87,67
253,838	-81,22
254,212	-76,97
254,587	-72,18
254,961	-69,74
255,335	-66,13
255,71	-57,4
256,084	-46,97
256,458	-39,49
256,832	-33,84
257,206	-30,63
257,581	-28,13
257,955	-26,6
258,329	-25,3
258,703	-24,11
259,077	-23,07
259,451	-22,3
259,825	-21,34
260,199	-20,51
260,572	-20,32
260,946	-20,52
261,32	-20,88
261,694	-20,54
262,068	-20,16
262,441	-19,29
262,815	-18,14
263,189	-17,61
263,562	-17,62
263,936	-18,7
264,309	-19,36
264,683	-21,16
265,056	-22,31
265,43	-22,46
265,803	-21,88
266,176	-21,42
266,55	-21,38
266,923	-20,9
267,296	-20,29
267,67	-20,14
268,043	-20,05
268,416	-19,59
268,789	-18,66
269,162	-17,23
269,535	-16,2
269,908	-15,42
270,281	-15,38
270,654	-15,6
271,027	-15,9
271,4	-16,54
271,773	-17,12
272,146	-17,77
272,519	-17,87
272,891	-17,4
273,264	-17,84
273,637	-18,11
274,01	-18,44
274,382	-18,71
274,755	-18,92
275,127	-19,6
275,5	-19,33
275,872	-18,6
276,245	-18,26
276,617	-18,38
276,99	-18,96
277,362	-19,63
277,734	-19,68
278,107	-19,48
278,479	-18,12
278,851	-17,38
279,223	-16,58
279,596	-15,9
279,968	-15,52
280,34	-15,59
280,712	-15,69
281,084	-15,19
281,456	-14,68
281,828	-14,25
282,2	-13,7
282,572	-12,6
282,944	-11,58
283,315	-11,48
283,687	-11,64
284,059	-11,43
284,431	-11,22
284,802	-10,79
285,174	-10,38
285,546	-10,49
285,917	-10,56
286,289	-11,01
286,66	-10,84
287,032	-10,58
287,403	-10,24
287,775	-9,96
288,146	-9,74
288,518	-9,84
288,889	-9,89
289,26	-9,87
289,632	-9,97
290,003	-10,15
290,374	-11,01
290,745	-11,69
291,116	-11,67
291,487	-11,3
291,858	-11,34
292,229	-11,23
292,6	-10,86
292,971	-10,56
293,342	-9,91
293,713	-8,86
294,084	-8,07
294,455	-7,82
294,826	-7,81
295,196	-7,99
295,567	-7,96
295,938	-7,73
296,308	-7,52
296,679	-7,13
297,05	-6,99
297,42	-6,93
297,791	-6,4
298,161	-5,99
298,532	-5,6
298,902	-5,62
299,272	-5,54
299,643	-5,27
300,013	-5,17
300,383	-5,36
300,754	-5,48
301,124	-5,83
301,494	-6,28
301,864	-6,52
302,234	-6,64
302,604	-6,5
302,974	-6,32
303,344	-6,42
303,714	-6,34
304,084	-6,07
304,454	-5,94
304,824	-5,84
305,194	-5,66
305,563	-5,87
305,933	-5,88
306,303	-5,63
306,673	-5,14
307,042	-5
307,412	-5,07
307,781	-4,86
308,151	-4,56
308,521	-4,28
308,89	-4,08
309,259	-3,93
309,629	-3,93
309,998	-3,77
310,368	-3,74
310,737	-3,53
311,106	-3,27
311,475	-3,18
311,845	-3,06
312,214	-3,04
312,583	-3,01
312,952	-2,91
313,321	-2,96
313,69	-2,93
314,059	-2,84
314,428	-2,67
314,797	-2,64
315,166	-2,54
315,535	-2,56
315,904	-2,7
316,272	-2,82
316,641	-2,58
317,01	-2,58
317,379	-2,35
317,747	-2,3
318,116	-2,21
318,484	-2,32
318,853	-2,4
319,221	-2,48
319,59	-2,64
319,958	-2,62
320,327	-2,25
320,695	-2,06
321,063	-1,79
321,432	-1,5
321,8	-1,44
322,168	-1,52
322,536	-1,44
322,905	-1,38
323,273	-1,33
323,641	-1,21
324,009	-1,1
324,377	-1,09
324,745	-0,95
325,113	-0,76
325,481	-0,54
325,849	-0,48
326,216	-0,28
326,584	-0,21
326,952	-0,13
327,32	0,08
327,687	0,28
328,055	0,19
328,423	0,22
328,79	0,22
329,158	0,1
329,525	0,14
329,893	0,29
330,26	0,39
330,628	0,46
330,995	0,49
331,362	0,67
331,73	0,85
332,097	1,05
332,464	1,21
332,831	1,12
333,199	1,24
333,566	1,45
333,933	1,49
334,3	1,64
334,667	1,83
335,034	1,76
335,401	1,75
335,768	1,8
336,135	1,87
336,502	1,98
336,868	2,2
337,235	2,36
337,602	2,48
337,969	2,52
338,335	2,63
338,702	2,69
339,069	2,74
339,435	2,84
339,802	2,81
340,168	2,76
340,535	2,79
340,901	2,8
341,267	2,75
341,634	2,86
342	2,92
342,366	2,97
342,733	3,05
343,099	3,04
343,465	3,04
343,831	3,15
344,197	3,26
344,563	3,32
344,929	3,29
345,295	3,24
345,661	3,29
346,027	3,32
346,393	3,56
346,759	3,61
347,125	3,61
347,491	3,62
347,856	3,65
348,222	3,71
348,588	3,67
348,953	3,72
349,319	3,75
349,684	3,79
350,05	3,72
350,415	3,8
350,781	3,92
351,146	4,11
351,512	4,2
351,877	4,23
352,242	4,27
352,608	4,35
352,973	4,38
353,338	4,42
353,703	4,46
354,068	4,39
354,433	4,39
354,798	4,42
355,164	4,46
355,528	4,54
355,893	4,61
356,258	4,68
356,623	4,73
356,988	4,68
357,353	4,66
357,718	4,65
358,082	4,66
358,447	4,72
358,812	4,64
359,176	4,62
359,541	4,68
359,905	4,72
360,27	4,65
360,634	4,69
360,999	4,67
361,363	4,73
361,728	4,78
362,092	4,81
362,456	4,83
362,821	4,89
363,185	4,95
363,549	4,95
363,913	4,93
364,277	4,96
364,641	5,06
365,005	5,14
365,369	5,21
365,733	5,23
366,097	5,27
366,461	5,31
366,825	5,35
367,189	5,34
367,553	5,42
367,916	5,53
368,28	5,57
368,644	5,71
369,007	5,83
369,371	5,84
369,734	5,96
370,098	6,16
370,461	6,25
370,825	6,3
371,188	6,39
371,552	6,53
371,915	6,6
372,278	6,7
372,642	6,79
373,005	6,87
373,368	6,91
373,731	6,94
374,094	7,08
374,457	7,12
374,82	7,19
375,183	7,26
375,546	7,38
375,909	7,46
376,272	7,52
376,635	7,56
376,998	7,61
377,361	7,65
377,723	7,64
378,086	7,62
378,449	7,68
378,811	7,73
379,174	7,74
379,537	7,79
379,899	7,8
380,262	7,81
380,624	7,9
380,987	8,05
381,349	8,12
381,711	8,14
382,074	8,19
382,436	8,26
382,798	8,34
383,16	8,35
383,522	8,36
383,884	8,36
384,247	8,38
384,609	8,47
384,971	8,52
385,333	8,53
385,695	8,6
386,056	8,57
386,418	8,59
386,78	8,63
387,142	8,62
387,504	8,63
387,865	8,68
388,227	8,7
388,589	8,68
388,95	8,71
389,312	8,73
389,673	8,75
390,035	8,72
390,396	8,66
390,758	8,65
391,119	8,68
391,48	8,71
391,842	8,71
392,203	8,67
392,564	8,65
392,925	8,67
393,286	8,64
393,648	8,68
394,009	8,68
394,37	8,7
394,731	8,74
395,092	8,74
395,452	8,74
395,813	8,74
396,174	8,76
396,535	8,78
396,896	8,81
397,257	8,83
397,617	8,87
397,978	8,92
398,338	8,95
398,699	8,98
399,06	8,97
399,42	8,97
399,781	9,01
400,141	9,01
400,501	9,01
400,862	9,02
401,222	9
401,582	8,99
401,943	8,97
402,303	8,97
402,663	9
403,023	8,97
403,383	9
403,743	9
404,103	8,97
404,463	8,97
404,823	9
405,183	9,01
405,543	9,03
405,903	9,03
406,262	9,02
406,622	9,03
406,982	9,03
407,342	9,04
407,701	9,1
408,061	9,11
408,42	9,14
408,78	9,17
409,139	9,23
409,499	9,23
409,858	9,25
410,217	9,25
410,577	9,3
410,936	9,28
411,295	9,25
411,655	9,25
412,014	9,22
412,373	9,19
412,732	9,14
413,091	9,06
413,45	9,03
413,809	9
414,168	8,95
414,527	8,91
414,886	8,87
415,245	8,82
415,603	8,77
415,962	8,71
416,321	8,69
416,679	8,61
417,038	8,56
417,397	8,52
417,755	8,48
418,114	8,43
418,472	8,39
418,831	8,39
419,189	8,37
419,547	8,34
419,906	8,33
420,264	8,32
420,622	8,31
420,981	8,3
421,339	8,28
421,697	8,28
422,055	8,3
422,413	8,3
422,771	8,3
423,129	8,32
423,487	8,34
423,845	8,35
424,203	8,39
424,56	8,43
424,918	8,45
425,276	8,48
425,634	8,53
425,991	8,58
426,349	8,6
426,707	8,65
427,064	8,69
427,422	8,72
427,779	8,77
428,137	8,82
428,494	8,87
428,851	8,91
429,209	8,93
429,566	8,93
429,923	8,92
430,28	8,93
430,637	8,94
430,995	8,93
431,352	8,94
431,709	8,93
432,066	8,95
432,423	8,95
432,78	8,96
433,137	8,96
433,493	8,95
433,85	8,96
434,207	8,91
434,564	8,91
434,92	8,9
435,277	8,88
435,634	8,88
435,99	8,88
436,347	8,86
436,703	8,85
437,06	8,83
437,416	8,86
437,773	8,84
438,129	8,83
438,485	8,83
438,841	8,82
439,198	8,83
439,554	8,81
439,91	8,82
440,266	8,82
440,622	8,81
440,978	8,82
441,334	8,8
441,69	8,8
442,046	8,8
442,402	8,8
442,758	8,77
443,113	8,76
443,469	8,76
443,825	8,76
444,181	8,77
444,536	8,79
444,892	8,78
445,247	8,8
445,603	8,81
445,958	8,83
446,314	8,84
446,669	8,84
447,025	8,85
447,38	8,84
447,735	8,84
448,09	8,85
448,446	8,85
448,801	8,85
449,156	8,88
449,511	8,88
449,866	8,9
450,221	8,96
450,576	8,99
450,931	9,03
451,286	9,07
451,641	9,1
451,995	9,13
452,35	9,16
452,705	9,16
453,06	9,16
453,414	9,17
453,769	9,17
454,123	9,18
454,478	9,18
454,832	9,19
455,187	9,18
455,541	9,17
455,896	9,16
456,25	9,13
456,604	9,12
456,958	9,11
457,313	9,11
457,667	9,07
458,021	9,07
458,375	9,06
458,729	9,06
459,083	9,07
459,437	9,06
459,791	9,05
460,145	9,07
460,499	9,08
460,852	9,07
461,206	9,09
461,56	9,09
461,914	9,08
462,267	9,09
462,621	9,1
462,974	9,11
463,328	9,15
463,681	9,16
464,035	9,17
464,388	9,21
464,742	9,21
465,095	9,24
465,448	9,25
465,801	9,23
466,155	9,24
466,508	9,23
466,861	9,24
467,214	9,25
467,567	9,24
467,92	9,23
468,273	9,24
468,626	9,23
468,979	9,23
469,332	9,24
469,684	9,25
470,037	9,27
470,39	9,28
470,743	9,29
471,095	9,31
471,448	9,32
471,8	9,34
472,153	9,36
472,505	9,38
472,858	9,39
473,21	9,44
473,562	9,44
473,915	9,45
474,267	9,44
474,619	9,44
474,971	9,46
475,324	9,45
475,676	9,46
476,028	9,44
476,38	9,45
476,732	9,44
477,084	9,44
477,436	9,42
477,787	9,4
478,139	9,38
478,491	9,39
478,843	9,36
479,195	9,34
479,546	9,32
479,898	9,25
480,249	9,2
480,601	9,16
480,952	9,12
481,304	9,1
481,655	9,09
482,007	9,07
482,358	9,06
482,709	9,05
483,061	9,03
483,412	9,03
483,763	9,02
484,114	9,01
484,465	8,99
484,816	8,98
485,167	8,97
485,518	8,98
485,869	8,97
486,22	8,98
486,571	8,97
486,922	8,98
487,272	8,99
487,623	9
487,974	9
488,324	9,01
488,675	9,02
489,025	9,03
489,376	9,04
489,726	9,04
490,077	9,06
490,427	9,08
490,778	9,1
491,128	9,12
491,478	9,15
491,828	9,19
492,179	9,23
492,529	9,27
492,879	9,28
493,229	9,29
493,579	9,3
493,929	9,31
494,279	9,31
494,629	9,32
494,979	9,33
495,328	9,37
495,678	9,4
496,028	9,43
496,378	9,46
496,727	9,5
497,077	9,52
497,426	9,54
497,776	9,54
498,125	9,53
498,475	9,53
498,824	9,54
499,174	9,53
499,523	9,53
499,872	9,52
500,221	9,53
500,571	9,56
500,92	9,58
501,269	9,61
501,618	9,61
501,967	9,62
502,316	9,64
502,665	9,66
503,014	9,69
503,363	9,68
503,711	9,69
504,06	9,67
504,409	9,68
504,758	9,66
505,106	9,67
505,455	9,68
505,803	9,67
506,152	9,65
506,5	9,66
506,849	9,68
507,197	9,67
507,546	9,67
507,894	9,67
508,242	9,66
508,59	9,66
508,939	9,66
509,287	9,66
509,635	9,66
509,983	9,66
510,331	9,64
510,679	9,66
511,027	9,67
511,375	9,7
511,723	9,7
512,07	9,72
512,418	9,74
512,766	9,75
513,114	9,77
513,461	9,78
513,809	9,79
514,156	9,78
514,504	9,78
514,851	9,77
515,199	9,76
515,546	9,75
515,893	9,73
516,241	9,74
516,588	9,74
516,935	9,76
517,282	9,76
517,63	9,78
517,977	9,78
518,324	9,77
518,671	9,76
519,018	9,78
519,365	9,78
519,711	9,79
520,058	9,8
520,405	9,8
520,752	9,81
521,099	9,82
521,445	9,85
521,792	9,87
522,138	9,87
522,485	9,87
522,832	9,9
523,178	9,92
523,524	9,92
523,871	9,91
524,217	9,89
524,563	9,87
524,91	9,82
525,256	9,79
525,602	9,76
525,948	9,74
526,294	9,71
526,64	9,69
526,986	9,67
527,332	9,66
527,678	9,66
528,024	9,65
528,37	9,65
528,716	9,62
529,061	9,62
529,407	9,63
529,753	9,64
530,098	9,63
530,444	9,63
530,789	9,62
531,135	9,63
531,48	9,64
531,826	9,65
532,171	9,67
532,516	9,7
532,862	9,72
533,207	9,74
533,552	9,77
533,897	9,77
534,242	9,79
534,587	9,8
534,932	9,8
535,277	9,83
535,622	9,83
535,967	9,86
536,312	9,88
536,657	9,89
537,001	9,9
537,346	9,91
537,691	9,91
538,035	9,92
538,38	9,9
538,724	9,88
539,069	9,87
539,413	9,86
539,758	9,85
540,102	9,85
540,446	9,85
540,791	9,84
541,135	9,86
541,479	9,87
541,823	9,86
542,167	9,86
542,512	9,86
542,856	9,84
543,2	9,84
543,543	9,82
543,887	9,83
544,231	9,83
544,575	9,84
544,919	9,85
545,262	9,88
545,606	9,91
545,95	9,94
546,293	9,96
546,637	9,98
546,98	10,02
547,324	10,03
547,667	10,06
548,011	10,07
548,354	10,05
548,697	10,05
549,04	10,06
549,384	10,05
549,727	10,04
550,07	10,08
550,413	10,08
550,756	10,1
551,099	10,08
551,442	10,08
551,785	10,08
552,128	10,09
552,47	10,05
552,813	10,04
553,156	10,03
553,499	10,02
553,841	10,02
554,184	10,01
554,526	10,01
554,869	9,99
555,211	9,98
555,554	9,97
555,896	9,96
556,238	9,94
556,581	9,94
556,923	9,92
557,265	9,9
557,607	9,89
557,949	9,86
558,291	9,87
558,633	9,83
558,975	9,79
559,317	9,78
559,659	9,79
560,001	9,76
560,343	9,75
560,685	9,72
561,026	9,69
561,368	9,67
561,71	9,62
562,051	9,6
562,393	9,61
562,734	9,62
563,076	9,62
563,417	9,66
563,759	9,65
564,1	9,64
564,441	9,6
564,782	9,59
565,124	9,59
565,465	9,54
565,806	9,55
566,147	9,57
566,488	9,55
566,829	9,55
567,17	9,56
567,511	9,54
567,851	9,54
568,192	9,52
568,533	9,5
568,874	9,51
569,214	9,51
569,555	9,48
569,895	9,47
570,236	9,45
570,576	9,41
570,917	9,41
571,257	9,41
571,598	9,41
571,938	9,4
572,278	9,37
572,618	9,39
572,959	9,38
573,299	9,35
573,639	9,35
573,979	9,32
574,319	9,28
574,659	9,26
574,999	9,25
575,339	9,24
575,678	9,22
576,018	9,2
576,358	9,19
576,698	9,17
577,037	9,12
577,377	9,1
577,716	9,08
578,056	9,07
578,395	9,06
578,735	9,05
579,074	9,04
579,413	9,02
579,753	9
580,092	8,97
580,431	8,96
580,77	8,95
581,109	8,94
581,448	8,95
581,787	8,95
582,126	8,97
582,465	8,98
582,804	9
583,143	8,99
583,482	9
583,82	9,02
584,159	9,05
584,498	9,05
584,836	9,04
585,175	9,03
585,514	9,01
585,852	9,01
586,19	9,05
586,529	9,08
586,867	9,1
587,205	9,13
587,544	9,15
587,882	9,14
588,22	9,17
588,558	9,18
588,896	9,18
589,234	9,17
589,572	9,18
589,91	9,17
590,248	9,18
590,586	9,16
590,924	9,15
591,262	9,17
591,599	9,17
591,937	9,18
592,275	9,18
592,612	9,19
592,95	9,21
593,287	9,2
593,625	9,23
593,962	9,24
594,299	9,25
594,637	9,27
594,974	9,28
595,311	9,28
595,648	9,28
595,985	9,28
596,322	9,29
596,659	9,33
596,996	9,36
597,333	9,36
597,67	9,35
598,007	9,37
598,344	9,35
598,681	9,38
599,017	9,38
599,354	9,39
599,691	9,41
600,027	9,43
600,364	9,42
600,7	9,42
601,037	9,44
601,373	9,45
601,71	9,46
602,046	9,5
602,382	9,51
602,718	9,52
603,054	9,54
603,391	9,55
603,727	9,52
604,063	9,52
604,399	9,51
604,735	9,51
605,071	9,5
605,406	9,52
605,742	9,52
606,078	9,56
606,414	9,56
606,749	9,59
607,085	9,6
607,421	9,59
607,756	9,59
608,092	9,59
608,427	9,57
608,762	9,55
609,098	9,54
609,433	9,53
609,768	9,51
610,104	9,48
610,439	9,45
610,774	9,43
611,109	9,41
611,444	9,42
611,779	9,45
612,114	9,47
612,449	9,45
612,784	9,43
613,118	9,41
613,453	9,39
613,788	9,35
614,123	9,3
614,457	9,3
614,792	9,28
615,126	9,22
615,461	9,19
615,795	9,18
616,13	9,15
616,464	9,14
616,798	9,18
617,132	9,19
617,467	9,21
617,801	9,23
618,135	9,27
618,469	9,31
618,803	9,3
619,137	9,33
619,471	9,33
619,805	9,35
620,139	9,37
620,472	9,41
620,806	9,39
621,14	9,37
621,473	9,35
621,807	9,35
622,141	9,39
622,474	9,43
622,808	9,44
623,141	9,48
623,474	9,49
623,808	9,48
624,141	9,5
624,474	9,5
624,807	9,49
625,141	9,48
625,474	9,48
625,807	9,51
626,14	9,49
626,473	9,48
626,806	9,51
627,138	9,52
627,471	9,49
627,804	9,51
628,137	9,55
628,469	9,57
628,802	9,58
629,135	9,61
629,467	9,61
629,8	9,62
630,132	9,59
630,465	9,58
630,797	9,59
631,129	9,6
631,461	9,59
631,794	9,62
632,126	9,62
632,458	9,59
632,79	9,54
633,122	9,58
633,454	9,6
633,786	9,56
634,118	9,54
634,45	9,58
634,781	9,6
635,113	9,59
635,445	9,6
635,777	9,62
636,108	9,59
636,44	9,6
636,771	9,65
637,103	9,68
637,434	9,69
637,765	9,68
638,097	9,71
638,428	9,7
638,759	9,7
639,09	9,72
639,422	9,71
639,753	9,73
640,084	9,71
640,415	9,7
640,746	9,73
641,077	9,7
641,407	9,67
641,738	9,65
642,069	9,63
642,4	9,65
642,73	9,64
643,061	9,64
643,392	9,64
643,722	9,62
644,053	9,6
644,383	9,62
644,713	9,63
645,044	9,6
645,374	9,64
645,704	9,61
646,034	9,57
646,365	9,62
646,695	9,64
647,025	9,67
647,355	9,72
647,685	9,7
648,015	9,73
648,344	9,75
648,674	9,74
649,004	9,76
649,334	9,78
649,663	9,81
649,993	9,85
650,323	9,84
650,652	9,83
650,982	9,85
651,311	9,83
651,64	9,81
651,97	9,8
652,299	9,8
652,628	9,82
652,958	9,85
653,287	9,86
653,616	9,84
653,945	9,79
654,274	9,74
654,603	9,76
654,932	9,76
655,261	9,77
655,589	9,83
655,918	9,87
656,247	9,93
656,576	10,01
656,904	10,05
657,233	10,12
657,561	10,15
657,89	10,16
658,218	10,19
658,547	10,26
658,875	10,31
659,203	10,34
659,532	10,37
659,86	10,39
660,188	10,37
660,516	10,38
660,844	10,39
661,172	10,44
661,5	10,44
661,828	10,47
662,156	10,49
662,484	10,48
662,811	10,45
663,139	10,4
663,467	10,31
663,794	10,25
664,122	10,21
664,45	10,15
664,777	10,16
665,104	10,15
665,432	10,11
665,759	10,08
666,086	10,07
666,414	10,11
666,741	10,09
667,068	10,13
667,395	10,13
667,722	10,13
668,049	10,09
668,376	10,08
668,703	10,08
669,03	10,07
669,357	10,12
669,683	10,16
670,01	10,2
670,337	10,19
670,663	10,17
670,99	10,19
671,317	10,23
671,643	10,26
671,969	10,22
672,296	10,26
672,622	10,25
672,948	10,25
673,275	10,21
673,601	10,21
673,927	10,17
674,253	10,22
674,579	10,27
674,905	10,31
675,231	10,33
675,557	10,35
675,883	10,35
676,209	10,33
676,534	10,34
676,86	10,37
677,186	10,43
677,511	10,49
677,837	10,51
678,162	10,56
678,488	10,54
678,813	10,57
679,139	10,58
679,464	10,61
679,789	10,6
680,114	10,61
680,44	10,68
680,765	10,72
681,09	10,73
681,415	10,73
681,74	10,76
682,065	10,77
682,39	10,75
682,714	10,7
683,039	10,7
683,364	10,73
683,689	10,7
684,013	10,69
684,338	10,66
684,662	10,65
684,987	10,61
685,311	10,64
685,636	10,66
685,96	10,65
686,284	10,66
686,608	10,65
686,933	10,64
687,257	10,62
687,581	10,59
687,905	10,6
688,229	10,61
688,553	10,59
688,877	10,53
689,201	10,52
689,524	10,56
689,848	10,55
690,172	10,51
690,496	10,55
690,819	10,56
691,143	10,57
691,466	10,55
691,79	10,58
692,113	10,59
692,436	10,63
692,76	10,66
693,083	10,66
693,406	10,7
693,729	10,76
694,053	10,77
694,376	10,78
694,699	10,79
695,022	10,79
695,344	10,81
695,667	10,92
695,99	11,07
696,313	11,18
696,636	11,21
696,958	11,29
697,281	11,31
697,604	11,33
697,926	11,37
698,249	11,42
698,571	11,4
698,893	11,37
699,216	11,33
699,538	11,31
699,86	11,31
700,182	11,31
700,504	11,3
700,827	11,27
701,149	11,28
701,471	11,32
701,793	11,37
702,114	11,43
702,436	11,41
702,758	11,3
703,08	11,2
703,401	11,17
703,723	11,11
704,045	11,1
704,366	11,11
704,688	11,1
705,009	11,09
705,331	11,05
705,652	11,07
705,973	11,07
706,294	11,04
706,616	11,04
706,937	11
707,258	10,95
707,579	11,05
707,9	11,08
708,221	11,02
708,542	10,98
708,863	10,96
709,183	11,01
709,504	11,07
709,825	11,15
710,145	11,2
710,466	11,25
710,787	11,28
711,107	11,35
711,427	11,33
711,748	11,41
712,068	11,53
712,388	11,59
712,709	11,71
713,029	11,77
713,349	11,79
713,669	11,87
713,989	11,94
714,309	11,97
714,629	12,03
714,949	12,1
715,269	12,1
715,589	12,1
715,908	12,1
716,228	12,14
716,548	12,19
716,867	12,16
717,187	12,11
717,506	12,12
717,826	12,12
718,145	12,18
718,465	12,16
718,784	12,24
719,103	12,36
719,422	12,4
719,741	12,49
720,061	12,59
720,38	12,65
720,699	12,77
721,018	12,79
721,336	12,88
721,655	13,03
721,974	13,21
722,293	13,35
722,612	13,4
722,93	13,49
723,249	13,49
723,567	13,68
723,886	13,88
724,204	14,06
724,523	14,21
724,841	14,39
725,159	14,59
725,477	14,68
725,796	14,72
726,114	14,87
726,432	15,04
726,75	15,17
727,068	15,26
727,386	15,31
727,704	15,34
728,022	15,42
728,339	15,48
728,657	15,52
728,975	15,6
729,292	15,83
729,61	15,9
729,928	16,05
730,245	16,09
730,562	16,15
730,88	16,2
731,197	16,18
731,514	16,18
731,832	16,18
732,149	16,25
732,466	16,37
732,783	16,44
733,1	16,45
733,417	16,54
733,734	16,65
734,051	16,75
734,368	16,9
734,684	16,94
735,001	16,95
735,318	17,08
735,634	17,08
735,951	17,06
736,268	17,19
736,584	17,32
736,9	17,49
737,217	17,75
737,533	17,82
737,849	18,04
738,166	18,23
738,482	18,29
738,798	18,34
739,114	18,36
739,43	18,4
739,746	18,47
740,062	18,61
740,378	18,7
740,693	18,82
741,009	18,96
741,325	19,13
741,641	19,31
741,956	19,44
742,272	19,65
742,587	19,77
742,903	19,81
743,218	19,9
743,533	19,99
743,849	19,87
744,164	19,93
744,479	19,94
744,794	19,98
745,109	20,19
745,424	20,2
745,739	20,25
746,054	20,38
746,369	20,51
746,684	20,62
746,999	20,71
747,313	20,74
747,628	20,75
747,943	20,77
748,257	20,72
748,572	20,64
748,886	20,63
749,201	20,69
749,515	20,82
749,829	20,87
750,144	20,82
750,458	20,95
750,772	20,92
751,086	20,94
751,4	20,92
751,714	20,91
752,028	21,09
752,342	21,23
752,656	21,25
752,97	21,27
753,284	21,27
753,597	21,22
753,911	21,27
754,225	21,36
754,538	21,45
754,852	21,54
755,165	21,63
755,478	21,81
755,792	21,91
756,105	22,02
756,418	22,05
756,731	22,14
757,045	22,23
757,358	22,31
757,671	22,43
757,984	22,57
758,297	22,59
758,609	22,54
758,922	22,54
759,235	22,44
759,548	22,37
759,86	22,26
760,173	22,26
760,486	22,1
760,798	21,98
761,111	21,73
761,423	21,56
761,735	21,52
762,048	21,48
762,36	21,41
762,672	21,27
762,984	21,28
763,296	21,34
763,608	21,29
763,92	21,38
764,232	21,39
764,544	21,48
764,856	21,62
765,168	21,8
765,48	21,93
765,791	22,19
766,103	22,47
766,414	22,69
766,726	22,85
767,037	23,2
767,349	23,6
767,66	24,15
767,972	24,6
768,283	25,15
768,594	25,41
768,905	25,67
769,216	26,08
769,527	26,27
769,838	26,44
770,149	26,8
770,46	27,01
770,771	27,25
771,082	27,49
771,393	27,63
771,703	27,71
772,014	27,82
772,324	27,77
772,635	27,78
772,945	28
773,256	28,37
773,566	28,58
773,877	28,5
774,187	28,43
774,497	28,56
774,807	28,71
775,117	28,94
775,427	29,4
775,737	29,53
776,047	29,71
776,357	29,93
776,667	29,82
776,977	29,88
777,287	30,15
777,596	29,94
777,906	29,88
778,216	29,99
778,525	29,95
778,835	30,12
779,144	29,8
779,453	29,6
779,763	29,5
780,072	29,62
780,381	29,88
780,69	30,06
781	30,3
781,309	30,16
781,618	30,31
781,927	30,4
782,235	30,5
782,544	30,82
782,853	30,98
783,162	31,24
783,471	31,21
783,779	30,91
784,088	31,19
784,396	31,21
784,705	30,92
785,013	31,17
785,322	31,18
785,63	31,44
785,938	31,47
786,246	31,34
786,554	31,1
786,863	30,7
787,171	30,69
787,479	30,85
787,787	30,98
788,094	31,15
788,402	30,93
788,71	30,9
789,018	30,75
789,326	30,66
789,633	30,56
789,941	30,7
790,248	31,02
790,556	31,13
790,863	31,23
791,171	31,55
791,478	31,46
791,785	31,55
792,092	31,72
792,399	31,82
792,707	32,04
793,014	32
793,321	32,38
793,628	32,51
793,934	32,37
794,241	32,42
794,548	32,2
794,855	32,33
795,161	32,36
795,468	32,31
795,775	32,27
796,081	32,51
796,388	32,78
796,694	32,78
797	32,98
797,307	33,37
797,613	33,3
797,919	33,22
798,225	33,18
798,531	33,54
798,837	33,97
799,143	34,33
799,449	34,79
799,755	34,73
800,061	34,93
800,367	35,17
800,672	35,18
800,978	35,11
801,284	35,26
801,589	35,23
801,895	35,12
802,2	35,26
802,506	35,28
802,811	35,28
803,116	35,06
803,421	34,55
803,727	34,24
804,032	34,46
804,337	34,93
804,642	35,16
804,947	35,42
805,252	35,49
805,556	35,52
805,861	35,7
806,166	36,07
806,471	35,93
806,775	35,87
807,08	35,99
807,384	35,99
807,689	36,11
807,993	36,28
808,298	36,78
808,602	37,24
808,906	37,45
809,211	37,63
809,515	37,89
809,819	38,18
810,123	38,47
810,427	38,61
810,731	38,54
811,035	38,71
811,338	38,62
811,642	38,72
811,946	38,56
812,25	38,31
812,553	38,01
812,857	38,3
813,16	38,38
813,464	38,33
813,767	38,68
814,07	38,74
814,374	38,57
814,677	38,29
814,98	38,11
815,283	37,95
815,586	37,85
815,889	37,73
816,192	37,82
816,495	37,63
816,798	37,21
817,101	37,09
817,404	36,4
817,706	35,54
818,009	34,28
818,312	33,72
818,614	32,97
818,917	31,58
819,219	29,47
819,521	27,75
819,824	26,25
820,126	24,95
820,428	24,02
820,73	23,43
821,032	23,04
821,334	22,67
821,636	22,53
821,938	22,36
822,24	22,27
822,542	22,24
822,844	22,17
823,145	22,12
823,447	21,95
823,749	21,93
824,05	21,91
824,352	21,84
824,653	21,74
824,955	21,73
825,256	21,92
825,557	22,21
825,858	22,43
826,16	22,81
826,461	23,22
826,762	23,64
827,063	24,17
827,364	24,68
827,665	25,23
827,965	25,58
828,266	26,06
828,567	26,43
828,868	26,8
829,168	27,26
829,469	27,66
829,769	28,04
830,07	28,41
830,37	28,92
830,67	29,59
830,971	30,16
831,271	30,42
831,571	30,62
831,871	30,81
832,171	31,18
832,471	31,29
832,771	31,56
833,071	31,63
833,371	31,92
833,671	32,15
833,971	32,34
834,27	32,28
834,57	32,2
834,869	32,28
835,169	32,4
835,468	32,41
835,768	32,48
836,067	32,52
836,367	32,65
836,666	32,9
836,965	33,35
837,264	33,87
837,563	34,62
837,862	35,46
838,161	36,24
838,46	36,81
838,759	37,65
839,058	38,52
839,356	39,48
839,655	39,82
839,954	40,11
840,252	40,47
840,551	41,3
840,849	42,29
841,148	42,98
841,446	43,27
841,744	43,48
842,043	43,76
842,341	44,24
842,639	44,76
842,937	44,86
843,235	44,99
843,533	45,34
843,831	45,62
844,129	46,12
844,427	47,11
844,724	48,37
845,022	48,87
845,32	49,4
845,617	50,26
845,915	50,61
846,212	51,29
846,51	52,09
846,807	52,83
847,104	52,64
847,402	52,04
847,699	51,52
847,996	51,7
848,293	51,9
848,59	52,81
848,887	52,64
849,184	52,18
849,481	52,5
849,778	53,15
850,074	54,27
850,371	54,37
850,668	54,24
850,964	54,53
851,261	55,3
851,557	55,88
851,854	56,28
852,15	56,52
852,446	56,43
852,743	55,72
853,039	54,76
853,335	55,61
853,631	56,9
853,927	57,78
854,223	57,47
854,519	57,05
854,815	56,13
855,111	56
855,406	56,05
855,702	56,75
855,998	56,92
856,293	57,32
856,589	58,07
856,884	58
857,18	57,27
857,475	56,9
857,77	56,89
858,066	56,77
858,361	57,53
858,656	58,31
858,951	59,79
859,246	61,06
859,541	60,54
859,836	60,48
860,131	60,33
860,426	60,41
860,72	60,99
861,015	61,81
861,31	62,27
861,604	62,78
861,899	61,57
862,193	60,94
862,487	60,95
862,782	60,64
863,076	61,16
863,37	62,21
863,664	62,36
863,959	62,56
864,253	62,83
864,547	62,17
864,841	61,89
865,135	60,95
865,428	60,78
865,722	60,91
866,016	60,13
866,31	59,33
866,603	59,36
866,897	59,43
867,19	59,45
867,484	59,43
867,777	59,44
868,07	60,19
868,364	60,96
868,657	60,69
868,95	60,22
869,243	59,48
869,536	59,17
869,829	58,88
870,122	57,93
870,415	57,19
870,708	57,19
871	57,34
871,293	57,99
871,586	58,24
871,878	57,84
872,171	57,74
872,463	58,74
872,756	59,41
873,048	58,63
873,341	58,1
873,633	57,96
873,925	58,22
874,217	58,34
874,509	57,84
874,801	57,24
875,093	57,52
875,385	58,08
875,677	57,04
875,969	56,8
