Data from zc_m3_p1_Reflection_5,txt Node
Date: Wed Nov 25 16:53:03 GMT-03:00 2020
User: Darío
Spectrometer: USB2E3644
Trigger mode: 4
Integration Time (sec): 9,000000E-2
Scans to average: 10
Electric dark correction enabled: true
Nonlinearity correction enabled: false
Boxcar width: 10
XAxis mode: Wavelengths
Number of Pixels in Spectrum: 2048
>>>>>Begin Spectral Data<<<<<
178,315	68,47
178,696	94,2
179,076	110,03
179,457	100,5
179,838	95,53
180,218	76,82
180,599	95,57
180,979	54,55
181,36	-23,33
181,74	-39,22
182,121	69,87
182,501	81,46
182,881	81,35
183,262	89,89
183,642	97,03
184,022	108,96
184,402	107,48
184,783	107,36
185,163	96,28
185,543	96,64
185,923	97,31
186,303	96,21
186,683	100,3
187,063	102,24
187,443	103,24
187,823	105,15
188,203	105,56
188,583	108,37
188,963	109,63
189,343	109,3
189,723	112,94
190,102	113,14
190,482	114,97
190,862	115,13
191,242	113,87
191,621	113,1
192,001	110,84
192,38	109,69
192,76	110,69
193,14	114,79
193,519	115,78
193,898	117,15
194,278	119,88
194,657	120,47
195,037	121,55
195,416	120,08
195,795	116,97
196,175	115,01
196,554	115,44
196,933	117,46
197,312	119,48
197,692	118,4
198,071	118,08
198,45	117,34
198,829	114,66
199,208	114,2
199,587	113,95
199,966	114,67
200,345	115,42
200,724	114,61
201,103	111,86
201,482	109,64
201,86	107,34
202,239	105,37
202,618	102,99
202,997	102,14
203,375	103
203,754	102,47
204,133	101,72
204,511	99,91
204,89	96,97
205,269	94,55
205,647	94,44
206,026	95,8
206,404	96,62
206,782	99,12
207,161	100,13
207,539	101,47
207,918	102,52
208,296	104,45
208,674	103,44
209,052	103,75
209,431	103,86
209,809	104,1
210,187	105,99
210,565	108,31
210,943	110,01
211,321	111,94
211,699	114,49
212,077	116,96
212,455	118,94
212,833	119,66
213,211	121,27
213,589	121,7
213,967	119,45
214,345	119,61
214,722	120,58
215,1	119,53
215,478	117,34
215,855	117,34
216,233	116,51
216,611	116,74
216,988	119,34
217,366	121,21
217,743	123,11
218,121	123,46
218,498	123,93
218,876	121,73
219,253	119,81
219,631	118,08
220,008	115,54
220,385	115,03
220,762	114,99
221,14	113,44
221,517	112,06
221,894	113,32
222,271	111,76
222,648	111,58
223,025	113,37
223,402	114,34
223,78	115,37
224,157	115,65
224,533	119,61
224,91	121,68
225,287	124,89
225,664	130,11
226,041	132,47
226,418	134,88
226,795	133,76
227,171	133,82
227,548	139,87
227,925	145,9
228,301	153,95
228,678	160,39
229,055	160,3
229,431	164,7
229,808	165,62
230,184	169,97
230,561	174,09
230,937	179,08
231,313	181,22
231,69	180,77
232,066	180,88
232,442	182,65
232,819	183,17
233,195	180,37
233,571	177,29
233,947	175,1
234,323	173,63
234,699	182,35
235,075	186,03
235,451	188,41
235,827	190,91
236,203	189,71
236,579	187,2
236,955	197,14
237,331	211,16
237,707	233,39
238,083	264,64
238,459	304,79
238,834	370,92
239,21	523,83
239,586	900,21
239,961	2206,57
240,337	5408,33
240,713	-2338,02
241,088	-901,46
241,464	-628,59
241,839	-472,08
242,215	-324,52
242,59	-235,77
242,965	-164,24
243,341	-115,54
243,716	-87,6
244,091	-73,86
244,467	-63,3
244,842	-56,06
245,217	-51,61
245,592	-49,63
245,967	-49,94
246,343	-49,24
246,718	-50,49
247,093	-52,35
247,468	-53,35
247,843	-53,23
248,218	-50,15
248,593	-48,94
248,967	-46,61
249,342	-44,61
249,717	-43,19
250,092	-43,12
250,467	-43,75
250,841	-46,1
251,216	-50,79
251,591	-57,21
251,965	-63,56
252,34	-70,11
252,714	-73,02
253,089	-74,43
253,463	-72,65
253,838	-68,87
254,212	-66,08
254,587	-61,45
254,961	-57,67
255,335	-52,66
255,71	-45,13
256,084	-36,75
256,458	-29,97
256,832	-25,21
257,206	-22,35
257,581	-20,56
257,955	-19,98
258,329	-19,81
258,703	-19,11
259,077	-18,64
259,451	-18,17
259,825	-17,77
260,199	-17,94
260,572	-18,66
260,946	-19,29
261,32	-19,97
261,694	-19,88
262,068	-19,74
262,441	-19,19
262,815	-18,43
263,189	-18,33
263,562	-18,2
263,936	-19,14
264,309	-20,25
264,683	-22,2
265,056	-23,37
265,43	-23,17
265,803	-21,97
266,176	-20,72
266,55	-20,26
266,923	-19,39
267,296	-18,56
267,67	-17,69
268,043	-16,65
268,416	-15,83
268,789	-14,7
269,162	-13,42
269,535	-12,05
269,908	-11,21
270,281	-10,76
270,654	-10,48
271,027	-9,98
271,4	-10,12
271,773	-10,2
272,146	-10,94
272,519	-11,55
272,891	-11,74
273,264	-12,43
273,637	-12,7
274,01	-12,45
274,382	-12,52
274,755	-12,35
275,127	-12,6
275,5	-13,07
275,872	-12,85
276,245	-12,62
276,617	-12,76
276,99	-13,35
277,362	-14,5
277,734	-14,63
278,107	-14,83
278,479	-14,03
278,851	-13,81
279,223	-13,51
279,596	-13,41
279,968	-12,51
280,34	-11,92
280,712	-11,78
281,084	-11,29
281,456	-11,11
281,828	-11,17
282,2	-10,92
282,572	-10,54
282,944	-9,97
283,315	-9,38
283,687	-9,18
284,059	-8,71
284,431	-8,05
284,802	-7,56
285,174	-7,21
285,546	-6,99
285,917	-6,98
286,289	-7,36
286,66	-7,22
287,032	-7,08
287,403	-6,89
287,775	-6,82
288,146	-6,65
288,518	-6,28
288,889	-6,29
289,26	-6,26
289,632	-6,03
290,003	-6
290,374	-6,36
290,745	-6,65
291,116	-6,77
291,487	-6,7
291,858	-6,75
292,229	-7,09
292,6	-6,76
292,971	-6,16
293,342	-5,65
293,713	-4,91
294,084	-4,23
294,455	-3,92
294,826	-3,69
295,196	-3,34
295,567	-3,23
295,938	-3,05
296,308	-3,19
296,679	-2,87
297,05	-2,58
297,42	-2,49
297,791	-2,28
298,161	-2,13
298,532	-2,04
298,902	-2
299,272	-1,88
299,643	-1,75
300,013	-1,65
300,383	-1,64
300,754	-1,7
301,124	-2,1
301,494	-2,47
301,864	-2,54
302,234	-2,69
302,604	-2,5
302,974	-2,45
303,344	-2,43
303,714	-2,38
304,084	-2,12
304,454	-1,92
304,824	-1,93
305,194	-2
305,563	-1,96
305,933	-1,7
306,303	-1,32
306,673	-0,77
307,042	-0,55
307,412	-0,54
307,781	-0,2
308,151	-0,06
308,521	-0,17
308,89	0,2
309,259	0,51
309,629	0,48
309,998	0,58
310,368	0,52
310,737	0,58
311,106	0,59
311,475	0,53
311,845	0,49
312,214	0,34
312,583	0,3
312,952	0,49
313,321	0,64
313,69	0,71
314,059	0,73
314,428	0,61
314,797	0,63
315,166	0,74
315,535	0,76
315,904	0,72
316,272	0,74
316,641	0,79
317,01	0,66
317,379	0,54
317,747	0,62
318,116	0,71
318,484	0,47
318,853	0,55
319,221	0,72
319,59	0,89
319,958	1,09
320,327	1,49
320,695	1,45
321,063	1,34
321,432	1,42
321,8	1,62
322,168	1,69
322,536	1,69
322,905	1,73
323,273	1,75
323,641	1,73
324,009	1,83
324,377	1,74
324,745	1,78
325,113	2,27
325,481	2,38
325,849	2,27
326,216	2,49
326,584	2,42
326,952	2,46
327,32	2,61
327,687	2,69
328,055	2,69
328,423	2,85
328,79	3,01
329,158	2,9
329,525	2,8
329,893	2,81
330,26	2,93
330,628	2,92
330,995	2,94
331,362	3,09
331,73	3,26
332,097	3,41
332,464	3,65
332,831	3,57
333,199	3,75
333,566	3,97
333,933	4,02
334,3	4,15
334,667	4,22
335,034	4,14
335,401	4,28
335,768	4,36
336,135	4,53
336,502	4,63
336,868	4,92
337,235	5,1
337,602	5,3
337,969	5,4
338,335	5,52
338,702	5,55
339,069	5,61
339,435	5,65
339,802	5,7
340,168	5,71
340,535	5,7
340,901	5,61
341,267	5,59
341,634	5,63
342	5,61
342,366	5,59
342,733	5,56
343,099	5,51
343,465	5,45
343,831	5,36
344,197	5,39
344,563	5,37
344,929	5,27
345,295	5,16
345,661	5,08
346,027	5,06
346,393	5,11
346,759	5,14
347,125	5,15
347,491	5,32
347,856	5,41
348,222	5,56
348,588	5,71
348,953	5,84
349,319	5,99
349,684	6,11
350,05	6,14
350,415	6,26
350,781	6,35
351,146	6,44
351,512	6,52
351,877	6,57
352,242	6,57
352,608	6,67
352,973	6,8
353,338	6,96
353,703	7,04
354,068	7,11
354,433	7,1
354,798	7,15
355,164	7,03
355,528	6,97
355,893	6,92
356,258	6,88
356,623	6,83
356,988	6,83
357,353	6,91
357,718	7,02
358,082	7,06
358,447	7,09
358,812	7,13
359,176	7,24
359,541	7,3
359,905	7,41
360,27	7,41
360,634	7,45
360,999	7,43
361,363	7,46
361,728	7,48
362,092	7,58
362,456	7,6
362,821	7,68
363,185	7,78
363,549	7,86
363,913	7,92
364,277	7,95
364,641	7,96
365,005	7,93
365,369	7,91
365,733	7,95
366,097	8,02
366,461	8,06
366,825	8,04
367,189	8,12
367,553	8,28
367,916	8,43
368,28	8,52
368,644	8,63
369,007	8,75
369,371	8,82
369,734	8,9
370,098	9,07
370,461	9,2
370,825	9,3
371,188	9,37
371,552	9,49
371,915	9,65
372,278	9,77
372,642	9,86
373,005	9,98
373,368	10,06
373,731	10,11
374,094	10,14
374,457	10,23
374,82	10,31
375,183	10,34
375,546	10,41
375,909	10,47
376,272	10,59
376,635	10,7
376,998	10,81
377,361	10,89
377,723	10,95
378,086	11,01
378,449	11,03
378,811	11,04
379,174	11,08
379,537	11,1
379,899	11,1
380,262	11,14
380,624	11,2
380,987	11,27
381,349	11,32
381,711	11,4
382,074	11,4
382,436	11,42
382,798	11,52
383,16	11,57
383,522	11,53
383,884	11,49
384,247	11,49
384,609	11,56
384,971	11,58
385,333	11,55
385,695	11,53
386,056	11,49
386,418	11,51
386,78	11,54
387,142	11,53
387,504	11,58
387,865	11,63
388,227	11,61
388,589	11,61
388,95	11,62
389,312	11,64
389,673	11,68
390,035	11,64
390,396	11,56
390,758	11,51
391,119	11,57
391,48	11,57
391,842	11,53
392,203	11,49
392,564	11,47
392,925	11,51
393,286	11,51
393,648	11,56
394,009	11,58
394,37	11,59
394,731	11,63
395,092	11,62
395,452	11,61
395,813	11,67
396,174	11,69
396,535	11,72
396,896	11,74
397,257	11,77
397,617	11,87
397,978	11,95
398,338	12,01
398,699	12,06
399,06	12,12
399,42	12,15
399,781	12,18
400,141	12,22
400,501	12,22
400,862	12,24
401,222	12,22
401,582	12,24
401,943	12,24
402,303	12,27
402,663	12,32
403,023	12,33
403,383	12,33
403,743	12,32
404,103	12,32
404,463	12,34
404,823	12,36
405,183	12,37
405,543	12,35
405,903	12,35
406,262	12,3
406,622	12,28
406,982	12,27
407,342	12,3
407,701	12,32
408,061	12,34
408,42	12,39
408,78	12,41
409,139	12,43
409,499	12,42
409,858	12,41
410,217	12,38
410,577	12,39
410,936	12,36
411,295	12,38
411,655	12,38
412,014	12,39
412,373	12,37
412,732	12,32
413,091	12,29
413,45	12,27
413,809	12,27
414,168	12,25
414,527	12,23
414,886	12,16
415,245	12,11
415,603	12,06
415,962	12
416,321	11,97
416,679	11,91
417,038	11,86
417,397	11,8
417,755	11,76
418,114	11,74
418,472	11,73
418,831	11,71
419,189	11,69
419,547	11,64
419,906	11,63
420,264	11,62
420,622	11,6
420,981	11,6
421,339	11,58
421,697	11,57
422,055	11,57
422,413	11,61
422,771	11,61
423,129	11,63
423,487	11,67
423,845	11,7
424,203	11,74
424,56	11,8
424,918	11,84
425,276	11,9
425,634	11,94
425,991	11,97
426,349	12,01
426,707	12,05
427,064	12,1
427,422	12,14
427,779	12,21
428,137	12,27
428,494	12,31
428,851	12,35
429,209	12,39
429,566	12,41
429,923	12,4
430,28	12,44
430,637	12,46
430,995	12,41
431,352	12,4
431,709	12,41
432,066	12,43
432,423	12,4
432,78	12,4
433,137	12,41
433,493	12,42
433,85	12,45
434,207	12,41
434,564	12,42
434,92	12,42
435,277	12,4
435,634	12,39
435,99	12,38
436,347	12,38
436,703	12,37
437,06	12,37
437,416	12,36
437,773	12,32
438,129	12,31
438,485	12,34
438,841	12,34
439,198	12,34
439,554	12,33
439,91	12,36
440,266	12,35
440,622	12,34
440,978	12,32
441,334	12,29
441,69	12,3
442,046	12,28
442,402	12,25
442,758	12,24
443,113	12,22
443,469	12,22
443,825	12,22
444,181	12,23
444,536	12,24
444,892	12,25
445,247	12,26
445,603	12,27
445,958	12,27
446,314	12,29
446,669	12,28
447,025	12,28
447,38	12,28
447,735	12,28
448,09	12,29
448,446	12,32
448,801	12,32
449,156	12,34
449,511	12,37
449,866	12,42
450,221	12,46
450,576	12,52
450,931	12,56
451,286	12,59
451,641	12,62
451,995	12,66
452,35	12,67
452,705	12,69
453,06	12,68
453,414	12,69
453,769	12,66
454,123	12,68
454,478	12,69
454,832	12,68
455,187	12,66
455,541	12,69
455,896	12,65
456,25	12,63
456,604	12,62
456,958	12,6
457,313	12,58
457,667	12,55
458,021	12,52
458,375	12,53
458,729	12,54
459,083	12,54
459,437	12,53
459,791	12,55
460,145	12,55
460,499	12,58
460,852	12,57
461,206	12,59
461,56	12,6
461,914	12,6
462,267	12,63
462,621	12,66
462,974	12,66
463,328	12,68
463,681	12,71
464,035	12,74
464,388	12,78
464,742	12,78
465,095	12,81
465,448	12,85
465,801	12,83
466,155	12,83
466,508	12,84
466,861	12,86
467,214	12,88
467,567	12,87
467,92	12,87
468,273	12,9
468,626	12,91
468,979	12,9
469,332	12,91
469,684	12,91
470,037	12,91
470,39	12,91
470,743	12,92
471,095	12,94
471,448	12,95
471,8	12,96
472,153	12,97
472,505	13
472,858	13,02
473,21	13,05
473,562	13,05
473,915	13,04
474,267	13,04
474,619	13,04
474,971	13,04
475,324	13,05
475,676	13,03
476,028	13,02
476,38	13,02
476,732	13,05
477,084	13,04
477,436	13,05
477,787	13,04
478,139	13,05
478,491	13,03
478,843	13,02
479,195	12,99
479,546	12,96
479,898	12,91
480,249	12,87
480,601	12,82
480,952	12,79
481,304	12,77
481,655	12,75
482,007	12,73
482,358	12,73
482,709	12,72
483,061	12,7
483,412	12,7
483,763	12,69
484,114	12,67
484,465	12,65
484,816	12,63
485,167	12,62
485,518	12,62
485,869	12,62
486,22	12,63
486,571	12,63
486,922	12,64
487,272	12,65
487,623	12,64
487,974	12,65
488,324	12,66
488,675	12,68
489,025	12,67
489,376	12,69
489,726	12,7
490,077	12,72
490,427	12,73
490,778	12,74
491,128	12,77
491,478	12,8
491,828	12,84
492,179	12,89
492,529	12,94
492,879	12,96
493,229	12,98
493,579	12,98
493,929	12,98
494,279	12,98
494,629	12,99
494,979	13,02
495,328	13,05
495,678	13,08
496,028	13,12
496,378	13,16
496,727	13,19
497,077	13,2
497,426	13,21
497,776	13,21
498,125	13,22
498,475	13,23
498,824	13,23
499,174	13,2
499,523	13,2
499,872	13,18
500,221	13,18
500,571	13,19
500,92	13,2
501,269	13,23
501,618	13,25
501,967	13,26
502,316	13,27
502,665	13,28
503,014	13,3
503,363	13,3
503,711	13,3
504,06	13,3
504,409	13,31
504,758	13,3
505,106	13,31
505,455	13,31
505,803	13,31
506,152	13,29
506,5	13,31
506,849	13,31
507,197	13,32
507,546	13,32
507,894	13,32
508,242	13,31
508,59	13,3
508,939	13,32
509,287	13,31
509,635	13,32
509,983	13,33
510,331	13,33
510,679	13,33
511,027	13,35
511,375	13,36
511,723	13,37
512,07	13,36
512,418	13,37
512,766	13,37
513,114	13,38
513,461	13,4
513,809	13,4
514,156	13,39
514,504	13,39
514,851	13,39
515,199	13,39
515,546	13,38
515,893	13,39
516,241	13,38
516,588	13,39
516,935	13,39
517,282	13,39
517,63	13,39
517,977	13,41
518,324	13,41
518,671	13,41
519,018	13,41
519,365	13,43
519,711	13,44
520,058	13,45
520,405	13,46
520,752	13,48
521,099	13,51
521,445	13,53
521,792	13,53
522,138	13,54
522,485	13,54
522,832	13,54
523,178	13,53
523,524	13,52
523,871	13,52
524,217	13,52
524,563	13,5
524,91	13,48
525,256	13,44
525,602	13,42
525,948	13,4
526,294	13,38
526,64	13,36
526,986	13,34
527,332	13,34
527,678	13,32
528,024	13,3
528,37	13,3
528,716	13,29
529,061	13,29
529,407	13,3
529,753	13,3
530,098	13,29
530,444	13,3
530,789	13,31
531,135	13,32
531,48	13,32
531,826	13,33
532,171	13,33
532,516	13,35
532,862	13,36
533,207	13,37
533,552	13,38
533,897	13,42
534,242	13,43
534,587	13,43
534,932	13,45
535,277	13,47
535,622	13,47
535,967	13,48
536,312	13,5
536,657	13,51
537,001	13,54
537,346	13,56
537,691	13,55
538,035	13,54
538,38	13,53
538,724	13,52
539,069	13,52
539,413	13,52
539,758	13,51
540,102	13,53
540,446	13,53
540,791	13,53
541,135	13,53
541,479	13,54
541,823	13,54
542,167	13,52
542,512	13,54
542,856	13,52
543,2	13,51
543,543	13,5
543,887	13,5
544,231	13,51
544,575	13,52
544,919	13,55
545,262	13,57
545,606	13,6
545,95	13,63
546,293	13,65
546,637	13,67
546,98	13,69
547,324	13,68
547,667	13,71
548,011	13,72
548,354	13,71
548,697	13,72
549,04	13,73
549,384	13,77
549,727	13,75
550,07	13,79
550,413	13,81
550,756	13,81
551,099	13,8
551,442	13,78
551,785	13,79
552,128	13,75
552,47	13,74
552,813	13,75
553,156	13,71
553,499	13,67
553,841	13,66
554,184	13,66
554,526	13,64
554,869	13,62
555,211	13,62
555,554	13,63
555,896	13,63
556,238	13,62
556,581	13,58
556,923	13,57
557,265	13,56
557,607	13,54
557,949	13,56
558,291	13,57
558,633	13,56
558,975	13,53
559,317	13,54
559,659	13,52
560,001	13,48
560,343	13,47
560,685	13,48
561,026	13,49
561,368	13,49
561,71	13,49
562,051	13,49
562,393	13,5
562,734	13,45
563,076	13,44
563,417	13,41
563,759	13,41
564,1	13,4
564,441	13,39
564,782	13,37
565,124	13,31
565,465	13,31
565,806	13,3
566,147	13,29
566,488	13,29
566,829	13,29
567,17	13,32
567,511	13,33
567,851	13,33
568,192	13,32
568,533	13,27
568,874	13,27
569,214	13,22
569,555	13,2
569,895	13,22
570,236	13,19
570,576	13,16
570,917	13,16
571,257	13,15
571,598	13,14
571,938	13,15
572,278	13,16
572,618	13,13
572,959	13,14
573,299	13,12
573,639	13,13
573,979	13,11
574,319	13,07
574,659	13,05
574,999	13,02
575,339	12,98
575,678	12,95
576,018	12,92
576,358	12,91
576,698	12,92
577,037	12,88
577,377	12,87
577,716	12,87
578,056	12,85
578,395	12,85
578,735	12,82
579,074	12,82
579,413	12,8
579,753	12,79
580,092	12,75
580,431	12,76
580,77	12,73
581,109	12,71
581,448	12,72
581,787	12,69
582,126	12,7
582,465	12,71
582,804	12,78
583,143	12,8
583,482	12,81
583,82	12,8
584,159	12,81
584,498	12,84
584,836	12,88
585,175	12,9
585,514	12,9
585,852	12,94
586,19	12,93
586,529	12,92
586,867	12,93
587,205	12,96
587,544	12,97
587,882	12,96
588,22	12,97
588,558	13
588,896	13,04
589,234	13,06
589,572	13,08
589,91	13,04
590,248	13,04
590,586	13,03
590,924	13,02
591,262	13,05
591,599	13,05
591,937	13,03
592,275	13
592,612	13,01
592,95	12,99
593,287	13,04
593,625	13,06
593,962	13,12
594,299	13,13
594,637	13,16
594,974	13,21
595,311	13,23
595,648	13,22
595,985	13,22
596,322	13,19
596,659	13,2
596,996	13,22
597,333	13,22
597,67	13,24
598,007	13,23
598,344	13,2
598,681	13,23
599,017	13,25
599,354	13,28
599,691	13,26
600,027	13,28
600,364	13,27
600,7	13,29
601,037	13,28
601,373	13,29
601,71	13,3
602,046	13,27
602,382	13,3
602,718	13,32
603,054	13,34
603,391	13,36
603,727	13,33
604,063	13,36
604,399	13,36
604,735	13,37
605,071	13,38
605,406	13,42
605,742	13,44
606,078	13,47
606,414	13,47
606,749	13,51
607,085	13,48
607,421	13,46
607,756	13,44
608,092	13,42
608,427	13,38
608,762	13,34
609,098	13,34
609,433	13,31
609,768	13,29
610,104	13,28
610,439	13,27
610,774	13,3
611,109	13,27
611,444	13,28
611,779	13,28
612,114	13,29
612,449	13,27
612,784	13,23
613,118	13,2
613,453	13,18
613,788	13,14
614,123	13,09
614,457	13,08
614,792	13,08
615,126	13,04
615,461	13,04
615,795	13,04
616,13	13,04
616,464	13,01
616,798	13
617,132	12,98
617,467	13,01
617,801	13,02
618,135	13,02
618,469	13,03
618,803	13,02
619,137	12,99
619,471	12,99
619,805	12,97
620,139	12,98
620,472	13
620,806	13,01
621,14	13,04
621,473	13,08
621,807	13,06
622,141	13,1
622,474	13,13
622,808	13,15
623,141	13,19
623,474	13,23
623,808	13,27
624,141	13,29
624,474	13,27
624,807	13,22
625,141	13,24
625,474	13,27
625,807	13,28
626,14	13,31
626,473	13,3
626,806	13,34
627,138	13,34
627,471	13,36
627,804	13,36
628,137	13,4
628,469	13,39
628,802	13,43
629,135	13,47
629,467	13,52
629,8	13,57
630,132	13,53
630,465	13,52
630,797	13,55
631,129	13,56
631,461	13,6
631,794	13,68
632,126	13,66
632,458	13,66
632,79	13,66
633,122	13,7
633,454	13,72
633,786	13,66
634,118	13,65
634,45	13,66
634,781	13,7
635,113	13,69
635,445	13,68
635,777	13,66
636,108	13,61
636,44	13,57
636,771	13,56
637,103	13,57
637,434	13,58
637,765	13,56
638,097	13,56
638,428	13,49
638,759	13,41
639,09	13,42
639,422	13,41
639,753	13,43
640,084	13,37
640,415	13,37
640,746	13,4
641,077	13,36
641,407	13,31
641,738	13,29
642,069	13,3
642,4	13,29
642,73	13,32
643,061	13,34
643,392	13,35
643,722	13,36
644,053	13,4
644,383	13,36
644,713	13,34
645,044	13,32
645,374	13,35
645,704	13,39
646,034	13,4
646,365	13,44
646,695	13,47
647,025	13,5
647,355	13,49
647,685	13,51
648,015	13,51
648,344	13,56
648,674	13,55
649,004	13,53
649,334	13,59
649,663	13,61
649,993	13,64
650,323	13,63
650,652	13,59
650,982	13,56
651,311	13,58
651,64	13,57
651,97	13,57
652,299	13,56
652,628	13,53
652,958	13,54
653,287	13,52
653,616	13,48
653,945	13,46
654,274	13,47
654,603	13,49
654,932	13,51
655,261	13,55
655,589	13,57
655,918	13,64
656,247	13,68
656,576	13,74
656,904	13,77
657,233	13,8
657,561	13,78
657,89	13,8
658,218	13,82
658,547	13,85
658,875	13,87
659,203	13,92
659,532	13,94
659,86	13,94
660,188	13,89
660,516	13,89
660,844	13,88
661,172	13,93
661,5	13,95
661,828	13,99
662,156	13,98
662,484	13,98
662,811	13,93
663,139	13,93
663,467	13,86
663,794	13,86
664,122	13,84
664,45	13,9
664,777	13,9
665,104	13,95
665,432	13,95
665,759	13,94
666,086	13,99
666,414	14,03
666,741	14,07
667,068	14,13
667,395	14,14
667,722	14,21
668,049	14,22
668,376	14,18
668,703	14,18
669,03	14,22
669,357	14,23
669,683	14,26
670,01	14,22
670,337	14,23
670,663	14,24
670,99	14,23
671,317	14,26
671,643	14,31
671,969	14,22
672,296	14,24
672,622	14,27
672,948	14,18
673,275	14,19
673,601	14,19
673,927	14,18
674,253	14,23
674,579	14,21
674,905	14,19
675,231	14,27
675,557	14,26
675,883	14,19
676,209	14,2
676,534	14,24
676,86	14,3
677,186	14,34
677,511	14,36
677,837	14,37
678,162	14,38
678,488	14,42
678,813	14,48
679,139	14,49
679,464	14,53
679,789	14,62
680,114	14,67
680,44	14,69
680,765	14,73
681,09	14,74
681,415	14,82
681,74	14,84
682,065	14,78
682,39	14,8
682,714	14,87
683,039	14,86
683,364	14,93
683,689	14,95
684,013	14,94
684,338	14,91
684,662	14,92
684,987	14,91
685,311	14,9
685,636	14,94
685,96	15,02
686,284	14,97
686,608	14,93
686,933	14,89
687,257	14,91
687,581	14,89
687,905	14,86
688,229	14,83
688,553	14,85
688,877	14,88
689,201	14,94
689,524	15,01
689,848	15,14
690,172	15,09
690,496	15,1
690,819	15,1
691,143	15,15
691,466	15,19
691,79	15,22
692,113	15,24
692,436	15,25
692,76	15,2
693,083	15,24
693,406	15,26
693,729	15,26
694,053	15,21
694,376	15,17
694,699	15,23
695,022	15,24
695,344	15,18
695,667	15,25
695,99	15,25
696,313	15,21
696,636	15,17
696,958	15,14
697,281	15,09
697,604	15,16
697,926	15,2
698,249	15,22
698,571	15,17
698,893	15,14
699,216	15,11
699,538	15,07
699,86	15,03
700,182	15,06
700,504	15,09
700,827	15,09
701,149	15,13
701,471	15,14
701,793	15,16
702,114	15,24
702,436	15,21
702,758	15,23
703,08	15,25
703,401	15,19
703,723	15,23
704,045	15,33
704,366	15,31
704,688	15,27
705,009	15,29
705,331	15,29
705,652	15,3
705,973	15,27
706,294	15,32
706,616	15,38
706,937	15,35
707,258	15,25
707,579	15,25
707,9	15,29
708,221	15,26
708,542	15,22
708,863	15,21
709,183	15,27
709,504	15,24
709,825	15,2
710,145	15,2
710,466	15,27
710,787	15,2
711,107	15,19
711,427	15,15
711,748	15,1
712,068	15,17
712,388	15,21
712,709	15,29
713,029	15,25
713,349	15,26
713,669	15,3
713,989	15,38
714,309	15,51
714,629	15,52
714,949	15,53
715,269	15,54
715,589	15,52
715,908	15,49
716,228	15,48
716,548	15,53
716,867	15,6
717,187	15,61
717,506	15,73
717,826	15,76
718,145	15,83
718,465	15,94
718,784	16,04
719,103	16,15
719,422	16,26
719,741	16,44
720,061	16,58
720,38	16,74
720,699	16,84
721,018	16,85
721,336	16,95
721,655	17,08
721,974	17,22
722,293	17,41
722,612	17,56
722,93	17,66
723,249	17,72
723,567	17,78
723,886	17,84
724,204	17,91
724,523	18,08
724,841	18,22
725,159	18,36
725,477	18,51
725,796	18,59
726,114	18,66
726,432	18,76
726,75	18,78
727,068	18,77
727,386	18,82
727,704	18,99
728,022	19,05
728,339	19,16
728,657	19,24
728,975	19,33
729,292	19,44
729,61	19,57
729,928	19,71
730,245	19,81
730,562	19,87
730,88	19,92
731,197	19,9
731,514	19,92
731,832	19,97
732,149	20,04
732,466	20,16
732,783	20,26
733,1	20,33
733,417	20,48
733,734	20,64
734,051	20,85
734,368	20,88
734,684	21
735,001	21,1
735,318	21,25
735,634	21,32
735,951	21,32
736,268	21,34
736,584	21,36
736,9	21,35
737,217	21,39
737,533	21,52
737,849	21,78
738,166	21,97
738,482	22,07
738,798	22,13
739,114	22,24
739,43	22,19
739,746	22,29
740,062	22,47
740,378	22,52
740,693	22,52
741,009	22,46
741,325	22,48
741,641	22,51
741,956	22,45
742,272	22,48
742,587	22,54
742,903	22,66
743,218	22,83
743,533	23,02
743,849	23,23
744,164	23,33
744,479	23,39
744,794	23,31
745,109	23,33
745,424	23,34
745,739	23,29
746,054	23,46
746,369	23,55
746,684	23,47
746,999	23,53
747,313	23,62
747,628	23,83
747,943	23,97
748,257	24,07
748,572	24,25
748,886	24,37
749,201	24,38
749,515	24,47
749,829	24,48
750,144	24,5
750,458	24,49
750,772	24,41
751,086	24,34
751,4	24,45
751,714	24,47
752,028	24,55
752,342	24,75
752,656	24,86
752,97	24,88
753,284	24,93
753,597	24,98
753,911	25,07
754,225	25,09
754,538	25,08
754,852	25,03
755,165	25
755,478	25,02
755,792	25,14
756,105	25,27
756,418	25,36
756,731	25,33
757,045	25,41
757,358	25,44
757,671	25,44
757,984	25,54
758,297	25,58
758,609	25,65
758,922	25,57
759,235	25,43
759,548	25,34
759,86	25,35
760,173	25,12
760,486	24,87
760,798	24,67
761,111	24,6
761,423	24,67
761,735	24,59
762,048	24,61
762,36	24,68
762,672	24,76
762,984	24,81
763,296	24,94
763,608	25,04
763,92	25,16
764,232	25,27
764,544	25,47
764,856	25,67
765,168	25,88
765,48	26,05
765,791	26,26
766,103	26,57
766,414	26,68
766,726	26,99
767,037	27,43
767,349	28,01
767,66	28,33
767,972	28,64
768,283	29,15
768,594	29,5
768,905	29,62
769,216	29,71
769,527	29,96
769,838	30,24
770,149	30,44
770,46	30,69
770,771	31,12
771,082	31,19
771,393	31,24
771,703	31,23
772,014	31,27
772,324	31,21
772,635	31,19
772,945	31,58
773,256	31,94
773,566	32,16
773,877	32,15
774,187	32,52
774,497	32,86
774,807	33,09
775,117	33,25
775,427	33,37
775,737	33,47
776,047	33,38
776,357	33,58
776,667	33,71
776,977	33,86
777,287	33,82
777,596	33,86
777,906	33,99
778,216	33,92
778,525	33,98
778,835	34,21
779,144	34,52
779,453	34,39
779,763	34,35
780,072	34,19
780,381	34,42
780,69	34,55
781	34,39
781,309	34,13
781,618	34,16
781,927	34,52
782,235	34,67
782,544	35,1
782,853	35,21
783,162	35,19
783,471	35,17
783,779	35,09
784,088	35,06
784,396	34,96
784,705	34,99
785,013	35,01
785,322	35
785,63	34,53
785,938	34,5
786,246	34,35
786,554	34,23
786,863	33,96
787,171	33,73
787,479	33,79
787,787	33,94
788,094	33,92
788,402	33,68
788,71	33,65
789,018	33,52
789,326	33,47
789,633	33,56
789,941	33,59
790,248	33,81
790,556	34,02
790,863	34,13
791,171	34,33
791,478	34,39
791,785	34,55
792,092	34,74
792,399	34,89
792,707	35,27
793,014	35,7
793,321	36,18
793,628	36,41
793,934	36,47
794,241	36,56
794,548	36,61
794,855	36,76
795,161	36,89
795,468	36,86
795,775	36,73
796,081	36,75
796,388	36,85
796,694	36,83
797	36,91
797,307	37,18
797,613	37,24
797,919	37,41
798,225	37,43
798,531	37,59
798,837	37,72
799,143	37,61
799,449	37,59
799,755	37,23
800,061	37,38
800,367	37,47
800,672	37,75
800,978	38,02
801,284	38,09
801,589	38,21
801,895	38,48
802,2	38,69
802,506	38,78
802,811	38,85
803,116	39,03
803,421	39,12
803,727	38,91
804,032	38,89
804,337	39,07
804,642	39,12
804,947	39,12
805,252	39,35
805,556	39,56
805,861	39,8
806,166	40,25
806,471	40,06
806,775	39,97
807,08	40,01
807,384	40,07
807,689	40,22
807,993	40,22
808,298	39,97
808,602	40,1
808,906	40,27
809,211	40,64
809,515	40,97
809,819	41,24
810,123	41,62
810,427	41,78
810,731	41,78
811,035	41,99
811,338	42,37
811,642	42,64
811,946	42,6
812,25	42,38
812,553	42,24
812,857	42,63
813,16	43,04
813,464	42,84
813,767	42,87
814,07	43,08
814,374	43,15
814,677	43,38
814,98	43,43
815,283	43,2
815,586	42,71
815,889	42,14
816,192	41,48
816,495	41
816,798	40,69
817,101	40,51
817,404	40,14
817,706	39,54
818,009	38,75
818,312	38,44
818,614	37,54
818,917	36,13
819,219	34,12
819,521	32,35
819,824	30,66
820,126	29,03
820,428	27,89
820,73	27,27
821,032	26,74
821,334	26,3
821,636	26,06
821,938	25,92
822,24	25,88
822,542	25,83
822,844	25,77
823,145	25,69
823,447	25,56
823,749	25,55
824,05	25,47
824,352	25,37
824,653	25,18
824,955	25,16
825,256	25,27
825,557	25,41
825,858	25,57
826,16	25,92
826,461	26,4
826,762	26,93
827,063	27,37
827,364	27,89
827,665	28,54
827,965	29,04
828,266	29,59
828,567	30,1
828,868	30,47
829,168	30,79
829,469	31,13
829,769	31,57
830,07	31,91
830,37	32,38
830,67	32,87
830,971	33,51
831,271	33,98
831,571	34,26
831,871	34,79
832,171	34,84
832,471	34,81
832,771	35,2
833,071	35,08
833,371	35,16
833,671	35,21
833,971	35,19
834,27	35,18
834,57	34,95
834,869	34,71
835,169	34,78
835,468	35,02
835,768	35,08
836,067	35,07
836,367	35,23
836,666	35,48
836,965	36
837,264	36,46
837,563	37,05
837,862	37,57
838,161	37,98
838,46	38,9
838,759	40,09
839,058	40,75
839,356	41,89
839,655	42,47
839,954	42,99
840,252	43,21
840,551	43,95
840,849	44,72
841,148	45,08
841,446	45,65
841,744	45,8
842,043	46,08
842,341	46,54
842,639	46,35
842,937	46,46
843,235	46,9
843,533	47,54
843,831	48,26
844,129	49,3
844,427	50,25
844,724	51,36
845,022	51,69
845,32	52,25
845,617	53,09
845,915	54,16
846,212	55,23
846,51	56,06
846,807	56,31
847,104	56,5
847,402	56,3
847,699	55,55
847,996	55,63
848,293	56,82
848,59	57,31
848,887	57,29
849,184	57,67
849,481	57,36
849,778	57,42
850,074	57,53
850,371	58,21
850,668	58,71
850,964	59,32
851,261	59,88
851,557	60,71
851,854	60,3
852,15	59,91
852,446	60,09
852,743	60,68
853,039	60,97
853,335	61,37
853,631	62,28
853,927	63,4
854,223	63,49
854,519	62,85
854,815	62,18
855,111	62,5
855,406	61,63
855,702	62,14
855,998	62,34
856,293	62,83
856,589	62,48
856,884	62,99
857,18	63,58
857,475	64,19
857,77	64,05
858,066	64,67
858,361	64,6
858,656	64,13
858,951	64,34
859,246	65,11
859,541	65,44
859,836	66,46
860,131	66,13
860,426	66,69
860,72	66,66
861,015	67,09
861,31	67,76
861,604	68,77
861,899	68,13
862,193	68,32
862,487	67,98
862,782	68,3
863,076	68,61
863,37	68,12
863,664	67,54
863,959	67,66
864,253	67,65
864,547	67,57
864,841	67,73
865,135	67,66
865,428	67,84
865,722	67,21
866,016	66,19
866,31	65,33
866,603	64,97
866,897	64,64
867,19	64,09
867,484	63,44
867,777	63,29
868,07	63,87
868,364	64,1
868,657	64,57
868,95	64,14
869,243	63,68
869,536	63,31
869,829	62,7
870,122	60,87
870,415	59,81
870,708	59,93
871	60,63
871,293	59,98
871,586	58,76
871,878	58,47
872,171	58,69
872,463	60,32
872,756	61,31
873,048	61,11
873,341	61,16
873,633	61,5
873,925	61,49
874,217	60,9
874,509	59,87
874,801	58,91
875,093	58,44
875,385	57,4
875,677	56,39
875,969	56,8
