Data from zc_m2_p4_Reflection_3,txt Node
Date: Wed Nov 25 16:49:17 GMT-03:00 2020
User: Darío
Spectrometer: USB2E3644
Trigger mode: 4
Integration Time (sec): 9,000000E-2
Scans to average: 10
Electric dark correction enabled: true
Nonlinearity correction enabled: false
Boxcar width: 10
XAxis mode: Wavelengths
Number of Pixels in Spectrum: 2048
>>>>>Begin Spectral Data<<<<<
178,315	111,4
178,696	146,05
179,076	170,65
179,457	139,84
179,838	121,8
180,218	122,28
180,599	130,57
180,979	118,18
181,36	-8,87
181,74	-39,71
182,121	241,79
182,501	139,94
182,881	148,92
183,262	134,62
183,642	134,73
184,022	136,11
184,402	150,89
184,783	155,33
185,163	144,33
185,543	138,88
185,923	137,69
186,303	135,3
186,683	135,65
187,063	136,81
187,443	134,27
187,823	131,46
188,203	128,77
188,583	126,6
188,963	125,91
189,343	123,11
189,723	124,21
190,102	124,18
190,482	124,48
190,862	124,5
191,242	125,08
191,621	126,65
192,001	125,16
192,38	121,16
192,76	120,44
193,14	118,61
193,519	115,62
193,898	112,96
194,278	111,15
194,657	111,09
195,037	109,8
195,416	108,76
195,795	107,86
196,175	107,22
196,554	107,18
196,933	107,1
197,312	106,62
197,692	105,28
198,071	103,06
198,45	100,28
198,829	99,19
199,208	98,29
199,587	97,21
199,966	97,62
200,345	99
200,724	99,69
201,103	99,79
201,482	100,08
201,86	101,25
202,239	102,54
202,618	102,36
202,997	101,79
203,375	101,2
203,754	101,41
204,133	102,64
204,511	103,44
204,89	104,24
205,269	103,63
205,647	103,48
206,026	106,62
206,404	109,72
206,782	111,19
207,161	112,36
207,539	112,81
207,918	113,41
208,296	111,72
208,674	109,59
209,052	108,5
209,431	109,26
209,809	110,19
210,187	109,18
210,565	110,59
210,943	112,35
211,321	114,14
211,699	116,04
212,077	116,66
212,455	117,35
212,833	117,55
213,211	116,43
213,589	115,37
213,967	112,18
214,345	110,59
214,722	108,72
215,1	107,16
215,478	106,84
215,855	106,36
216,233	107,44
216,611	108,14
216,988	109,68
217,366	109,86
217,743	108,05
218,121	108,97
218,498	107,56
218,876	105,77
219,253	107,05
219,631	105,38
220,008	104,59
220,385	104,83
220,762	104,52
221,14	107,71
221,517	110,83
221,894	115,34
222,271	117,99
222,648	119,44
223,025	121,38
223,402	122,75
223,78	121,63
224,157	120,68
224,533	122,78
224,91	125,05
225,287	126,34
225,664	126,8
226,041	127,45
226,418	129,01
226,795	133,71
227,171	132,76
227,548	135,95
227,925	141,38
228,301	142,21
228,678	141,14
229,055	141,35
229,431	143,31
229,808	137,88
230,184	138,71
230,561	143,4
230,937	147,93
231,313	153,94
231,69	161,05
232,066	167,88
232,442	174,17
232,819	178,35
233,195	183,95
233,571	191,36
233,947	190,79
234,323	193,69
234,699	196,77
235,075	206,24
235,451	212,15
235,827	209,07
236,203	207,32
236,579	223,29
236,955	240,78
237,331	258,49
237,707	303,65
238,083	367
238,459	462,04
238,834	789,25
239,21	3876,52
239,586	-1441,16
239,961	-869,83
240,337	-707,5
240,713	-475,35
241,088	-334,88
241,464	-280,52
241,839	-230,24
242,215	-181,98
242,59	-142,51
242,965	-108,31
243,341	-81,13
243,716	-65,67
244,091	-56,34
244,467	-48,69
244,842	-43,29
245,217	-41,43
245,592	-40,73
245,967	-41,28
246,343	-41,22
246,718	-43,38
247,093	-44,64
247,468	-44,84
247,843	-44,77
248,218	-41,64
248,593	-40,88
248,967	-39,26
249,342	-37,99
249,717	-37,79
250,092	-38,67
250,467	-39,76
250,841	-42,3
251,216	-46,55
251,591	-50,91
251,965	-55,29
252,34	-60,52
252,714	-63,93
253,089	-64,19
253,463	-63,28
253,838	-59,22
254,212	-56,53
254,587	-53,3
254,961	-51,02
255,335	-47,13
255,71	-39,93
256,084	-32,78
256,458	-27,04
256,832	-23,12
257,206	-20,9
257,581	-18,92
257,955	-17,8
258,329	-17
258,703	-15,89
259,077	-15,27
259,451	-14,75
259,825	-14,55
260,199	-14,36
260,572	-15,1
260,946	-15,99
261,32	-16,59
261,694	-16,95
262,068	-17,15
262,441	-16,46
262,815	-15,61
263,189	-15,4
263,562	-15,61
263,936	-16,66
264,309	-17,68
264,683	-19,21
265,056	-19,9
265,43	-19,83
265,803	-19,56
266,176	-19,01
266,55	-18,35
266,923	-18,08
267,296	-18,03
267,67	-17,63
268,043	-17,64
268,416	-16,84
268,789	-15,38
269,162	-13,71
269,535	-12,53
269,908	-11,5
270,281	-11,34
270,654	-11,11
271,027	-10,93
271,4	-11,19
271,773	-11,67
272,146	-12,48
272,519	-12,84
272,891	-13
273,264	-13,47
273,637	-13,83
274,01	-13,84
274,382	-14,37
274,755	-14,35
275,127	-14,36
275,5	-14,02
275,872	-13,4
276,245	-13,07
276,617	-13,02
276,99	-13,58
277,362	-14,25
277,734	-14,53
278,107	-14,66
278,479	-14,33
278,851	-14,06
279,223	-13,71
279,596	-13,34
279,968	-12,67
280,34	-12,24
280,712	-12,11
281,084	-11,75
281,456	-11,27
281,828	-10,89
282,2	-9,91
282,572	-8,93
282,944	-8,15
283,315	-7,75
283,687	-7,47
284,059	-7,05
284,431	-6,7
284,802	-6,43
285,174	-6,04
285,546	-5,64
285,917	-5,5
286,289	-5,43
286,66	-5,21
287,032	-4,78
287,403	-4,47
287,775	-4,29
288,146	-4,16
288,518	-3,87
288,889	-3,81
289,26	-3,44
289,632	-3,25
290,003	-3,47
290,374	-3,9
290,745	-4,17
291,116	-3,9
291,487	-3,44
291,858	-3,22
292,229	-3,18
292,6	-2,56
292,971	-2,28
293,342	-2,06
293,713	-1,42
294,084	-1,08
294,455	-0,83
294,826	-0,69
295,196	-0,38
295,567	-0,2
295,938	-0,02
296,308	0,13
296,679	0,55
297,05	0,75
297,42	0,89
297,791	1,13
298,161	1,34
298,532	1,56
298,902	1,59
299,272	1,59
299,643	1,87
300,013	2,11
300,383	2,01
300,754	1,98
301,124	1,94
301,494	1,87
301,864	2
302,234	2
302,604	2,35
302,974	2,61
303,344	2,8
303,714	2,96
304,084	3,06
304,454	3,39
304,824	3,34
305,194	3,43
305,563	3,52
305,933	3,89
306,303	4,32
306,673	4,58
307,042	4,83
307,412	4,83
307,781	5,12
308,151	5,4
308,521	5,97
308,89	6,29
309,259	6,59
309,629	6,77
309,998	6,9
310,368	6,91
310,737	6,94
311,106	6,92
311,475	6,9
311,845	7,06
312,214	6,89
312,583	6,9
312,952	6,93
313,321	7,01
313,69	6,97
314,059	6,89
314,428	7,03
314,797	7,16
315,166	7,29
315,535	7,17
315,904	7,03
316,272	6,66
316,641	6,66
317,01	6,6
317,379	6,7
317,747	7
318,116	7,01
318,484	7,14
318,853	7,27
319,221	7,29
319,59	7,29
319,958	7,39
320,327	7,67
320,695	7,95
321,063	8,15
321,432	8,35
321,8	8,53
322,168	8,5
322,536	8,41
322,905	8,33
323,273	8,45
323,641	8,52
324,009	8,64
324,377	8,79
324,745	8,97
325,113	9,17
325,481	9,3
325,849	9,42
326,216	9,34
326,584	9,45
326,952	9,62
327,32	9,77
327,687	9,89
328,055	10,08
328,423	10,18
328,79	10,34
329,158	10,46
329,525	10,53
329,893	10,69
330,26	10,89
330,628	11,19
330,995	11,34
331,362	11,56
331,73	11,79
332,097	11,84
332,464	11,8
332,831	11,77
333,199	11,93
333,566	12,03
333,933	12,35
334,3	12,39
334,667	12,56
335,034	12,6
335,401	12,76
335,768	12,82
336,135	12,88
336,502	13
336,868	13,18
337,235	13,35
337,602	13,53
337,969	13,64
338,335	13,68
338,702	13,74
339,069	13,8
339,435	13,91
339,802	14,06
340,168	14,26
340,535	14,38
340,901	14,38
341,267	14,47
341,634	14,5
342	14,74
342,366	14,82
342,733	14,93
343,099	15,05
343,465	15,19
343,831	15,29
344,197	15,36
344,563	15,43
344,929	15,5
345,295	15,49
345,661	15,52
346,027	15,65
346,393	15,76
346,759	15,91
347,125	15,96
347,491	16,12
347,856	16,23
348,222	16,31
348,588	16,42
348,953	16,57
349,319	16,71
349,684	16,74
350,05	16,73
350,415	16,86
350,781	16,95
351,146	17,06
351,512	17,12
351,877	17,12
352,242	17,12
352,608	17,23
352,973	17,35
353,338	17,46
353,703	17,48
354,068	17,54
354,433	17,57
354,798	17,65
355,164	17,63
355,528	17,65
355,893	17,69
356,258	17,73
356,623	17,66
356,988	17,57
357,353	17,54
357,718	17,74
358,082	17,73
358,447	17,77
358,812	17,73
359,176	17,83
359,541	17,97
359,905	18,13
360,27	18,14
360,634	18,15
360,999	18,13
361,363	18,23
361,728	18,31
362,092	18,38
362,456	18,47
362,821	18,54
363,185	18,6
363,549	18,67
363,913	18,72
364,277	18,89
364,641	19,09
365,005	19,24
365,369	19,2
365,733	19,35
366,097	19,47
366,461	19,53
366,825	19,49
367,189	19,53
367,553	19,55
367,916	19,63
368,28	19,81
368,644	19,97
369,007	20,03
369,371	20,15
369,734	20,28
370,098	20,38
370,461	20,52
370,825	20,62
371,188	20,7
371,552	20,75
371,915	20,8
372,278	20,8
372,642	20,9
373,005	20,95
373,368	20,97
373,731	21,02
374,094	21,1
374,457	21,21
374,82	21,26
375,183	21,4
375,546	21,49
375,909	21,51
376,272	21,57
376,635	21,69
376,998	21,74
377,361	21,76
377,723	21,81
378,086	21,8
378,449	21,85
378,811	21,95
379,174	22,02
379,537	22,1
379,899	22,16
380,262	22,16
380,624	22,19
380,987	22,25
381,349	22,29
381,711	22,4
382,074	22,49
382,436	22,58
382,798	22,7
383,16	22,73
383,522	22,7
383,884	22,75
384,247	22,72
384,609	22,74
384,971	22,78
385,333	22,79
385,695	22,83
386,056	22,83
386,418	22,82
386,78	22,91
387,142	22,92
387,504	22,95
387,865	23,03
388,227	23,1
388,589	23,14
388,95	23,15
389,312	23,17
389,673	23,23
390,035	23,2
390,396	23,17
390,758	23,18
391,119	23,26
391,48	23,28
391,842	23,33
392,203	23,37
392,564	23,39
392,925	23,45
393,286	23,48
393,648	23,52
394,009	23,54
394,37	23,51
394,731	23,57
395,092	23,6
395,452	23,62
395,813	23,68
396,174	23,76
396,535	23,82
396,896	23,86
397,257	23,86
397,617	23,94
397,978	24,01
398,338	24,04
398,699	24,09
399,06	24,16
399,42	24,18
399,781	24,26
400,141	24,3
400,501	24,31
400,862	24,37
401,222	24,41
401,582	24,45
401,943	24,47
402,303	24,51
402,663	24,56
403,023	24,56
403,383	24,57
403,743	24,56
404,103	24,58
404,463	24,63
404,823	24,67
405,183	24,68
405,543	24,64
405,903	24,7
406,262	24,68
406,622	24,67
406,982	24,68
407,342	24,71
407,701	24,73
408,061	24,76
408,42	24,76
408,78	24,77
409,139	24,78
409,499	24,79
409,858	24,79
410,217	24,8
410,577	24,83
410,936	24,82
411,295	24,78
411,655	24,78
412,014	24,75
412,373	24,75
412,732	24,74
413,091	24,74
413,45	24,71
413,809	24,69
414,168	24,65
414,527	24,6
414,886	24,58
415,245	24,59
415,603	24,55
415,962	24,54
416,321	24,51
416,679	24,46
417,038	24,43
417,397	24,39
417,755	24,36
418,114	24,35
418,472	24,36
418,831	24,36
419,189	24,36
419,547	24,37
419,906	24,35
420,264	24,34
420,622	24,35
420,981	24,36
421,339	24,4
421,697	24,42
422,055	24,47
422,413	24,49
422,771	24,5
423,129	24,53
423,487	24,55
423,845	24,57
424,203	24,63
424,56	24,68
424,918	24,73
425,276	24,79
425,634	24,82
425,991	24,86
426,349	24,93
426,707	24,99
427,064	25,01
427,422	25,06
427,779	25,13
428,137	25,18
428,494	25,24
428,851	25,26
429,209	25,27
429,566	25,25
429,923	25,23
430,28	25,24
430,637	25,26
430,995	25,25
431,352	25,27
431,709	25,26
432,066	25,29
432,423	25,3
432,78	25,33
433,137	25,32
433,493	25,29
433,85	25,28
434,207	25,23
434,564	25,22
434,92	25,23
435,277	25,23
435,634	25,23
435,99	25,21
436,347	25,2
436,703	25,21
437,06	25,24
437,416	25,26
437,773	25,26
438,129	25,26
438,485	25,29
438,841	25,27
439,198	25,29
439,554	25,3
439,91	25,3
440,266	25,32
440,622	25,34
440,978	25,36
441,334	25,36
441,69	25,38
442,046	25,37
442,402	25,36
442,758	25,36
443,113	25,34
443,469	25,36
443,825	25,37
444,181	25,36
444,536	25,36
444,892	25,35
445,247	25,37
445,603	25,37
445,958	25,38
446,314	25,41
446,669	25,42
447,025	25,42
447,38	25,42
447,735	25,4
448,09	25,4
448,446	25,4
448,801	25,42
449,156	25,42
449,511	25,48
449,866	25,51
450,221	25,55
450,576	25,59
450,931	25,63
451,286	25,66
451,641	25,71
451,995	25,74
452,35	25,79
452,705	25,79
453,06	25,8
453,414	25,81
453,769	25,8
454,123	25,81
454,478	25,82
454,832	25,84
455,187	25,84
455,541	25,85
455,896	25,86
456,25	25,85
456,604	25,85
456,958	25,84
457,313	25,85
457,667	25,83
458,021	25,82
458,375	25,82
458,729	25,83
459,083	25,83
459,437	25,85
459,791	25,83
460,145	25,85
460,499	25,85
460,852	25,83
461,206	25,86
461,56	25,85
461,914	25,85
462,267	25,85
462,621	25,88
462,974	25,9
463,328	25,91
463,681	25,95
464,035	25,96
464,388	25,98
464,742	25,97
465,095	25,98
465,448	26,02
465,801	26,02
466,155	26,03
466,508	26,03
466,861	26,03
467,214	26,05
467,567	26,06
467,92	26,07
468,273	26,11
468,626	26,08
468,979	26,09
469,332	26,1
469,684	26,11
470,037	26,09
470,39	26,09
470,743	26,1
471,095	26,1
471,448	26,13
471,8	26,14
472,153	26,18
472,505	26,22
472,858	26,2
473,21	26,22
473,562	26,24
473,915	26,24
474,267	26,24
474,619	26,24
474,971	26,25
475,324	26,26
475,676	26,27
476,028	26,27
476,38	26,29
476,732	26,29
477,084	26,3
477,436	26,3
477,787	26,3
478,139	26,33
478,491	26,34
478,843	26,34
479,195	26,35
479,546	26,32
479,898	26,3
480,249	26,34
480,601	26,39
480,952	26,42
481,304	26,41
481,655	26,38
482,007	26,37
482,358	26,36
482,709	26,34
483,061	26,33
483,412	26,32
483,763	26,3
484,114	26,29
484,465	26,28
484,816	26,28
485,167	26,27
485,518	26,25
485,869	26,23
486,22	26,22
486,571	26,22
486,922	26,23
487,272	26,24
487,623	26,21
487,974	26,17
488,324	26,14
488,675	26,14
489,025	26,16
489,376	26,15
489,726	26,17
490,077	26,18
490,427	26,2
490,778	26,22
491,128	26,24
491,478	26,27
491,828	26,27
492,179	26,29
492,529	26,32
492,879	26,36
493,229	26,4
493,579	26,43
493,929	26,42
494,279	26,43
494,629	26,43
494,979	26,44
495,328	26,46
495,678	26,49
496,028	26,51
496,378	26,54
496,727	26,57
497,077	26,57
497,426	26,58
497,776	26,58
498,125	26,6
498,475	26,61
498,824	26,61
499,174	26,63
499,523	26,66
499,872	26,66
500,221	26,65
500,571	26,64
500,92	26,65
501,269	26,68
501,618	26,67
501,967	26,69
502,316	26,72
502,665	26,71
503,014	26,71
503,363	26,72
503,711	26,75
504,06	26,77
504,409	26,76
504,758	26,77
505,106	26,77
505,455	26,76
505,803	26,78
506,152	26,78
506,5	26,77
506,849	26,75
507,197	26,74
507,546	26,74
507,894	26,75
508,242	26,75
508,59	26,78
508,939	26,79
509,287	26,8
509,635	26,8
509,983	26,81
510,331	26,81
510,679	26,82
511,027	26,83
511,375	26,84
511,723	26,87
512,07	26,91
512,418	26,92
512,766	26,95
513,114	26,97
513,461	26,98
513,809	26,99
514,156	27
514,504	27,01
514,851	27,02
515,199	27,03
515,546	27,04
515,893	27,01
516,241	27,02
516,588	26,98
516,935	26,99
517,282	26,99
517,63	27,03
517,977	27,03
518,324	27,03
518,671	27,01
519,018	27
519,365	26,97
519,711	26,97
520,058	26,97
520,405	26,94
520,752	26,95
521,099	26,97
521,445	26,98
521,792	26,98
522,138	26,96
522,485	26,95
522,832	26,96
523,178	26,98
523,524	26,96
523,871	26,99
524,217	26,99
524,563	26,98
524,91	26,97
525,256	27
525,602	27,05
525,948	27,06
526,294	27,04
526,64	27,04
526,986	27,04
527,332	27,01
527,678	27,01
528,024	27
528,37	27
528,716	27
529,061	27,02
529,407	27,03
529,753	27,03
530,098	27,01
530,444	27,01
530,789	27,02
531,135	27,03
531,48	27,04
531,826	27,05
532,171	27,04
532,516	27,01
532,862	26,99
533,207	26,98
533,552	27
533,897	27,02
534,242	27,01
534,587	27,04
534,932	27,06
535,277	27,09
535,622	27,09
535,967	27,12
536,312	27,13
536,657	27,13
537,001	27,15
537,346	27,19
537,691	27,2
538,035	27,2
538,38	27,19
538,724	27,19
539,069	27,18
539,413	27,2
539,758	27,2
540,102	27,18
540,446	27,18
540,791	27,18
541,135	27,17
541,479	27,19
541,823	27,19
542,167	27,19
542,512	27,18
542,856	27,16
543,2	27,13
543,543	27,1
543,887	27,12
544,231	27,14
544,575	27,13
544,919	27,12
545,262	27,15
545,606	27,14
545,95	27,14
546,293	27,14
546,637	27,14
546,98	27,15
547,324	27,18
547,667	27,19
548,011	27,2
548,354	27,22
548,697	27,22
549,04	27,24
549,384	27,25
549,727	27,25
550,07	27,3
550,413	27,33
550,756	27,39
551,099	27,35
551,442	27,35
551,785	27,36
552,128	27,37
552,47	27,34
552,813	27,38
553,156	27,38
553,499	27,36
553,841	27,36
554,184	27,37
554,526	27,35
554,869	27,34
555,211	27,31
555,554	27,27
555,896	27,25
556,238	27,24
556,581	27,2
556,923	27,15
557,265	27,13
557,607	27,11
557,949	27,08
558,291	27,08
558,633	27,05
558,975	27,02
559,317	27,01
559,659	27
560,001	26,98
560,343	26,99
560,685	27,03
561,026	27,01
561,368	26,98
561,71	26,98
562,051	26,98
562,393	27,01
562,734	27,02
563,076	27
563,417	26,97
563,759	26,98
564,1	26,99
564,441	26,96
564,782	26,95
565,124	26,92
565,465	26,91
565,806	26,91
566,147	26,91
566,488	26,9
566,829	26,87
567,17	26,84
567,511	26,82
567,851	26,82
568,192	26,81
568,533	26,82
568,874	26,82
569,214	26,81
569,555	26,77
569,895	26,79
570,236	26,81
570,576	26,8
570,917	26,8
571,257	26,82
571,598	26,84
571,938	26,82
572,278	26,83
572,618	26,83
572,959	26,82
573,299	26,81
573,639	26,8
573,979	26,79
574,319	26,79
574,659	26,81
574,999	26,77
575,339	26,74
575,678	26,72
576,018	26,67
576,358	26,64
576,698	26,63
577,037	26,58
577,377	26,55
577,716	26,57
578,056	26,55
578,395	26,54
578,735	26,54
579,074	26,53
579,413	26,52
579,753	26,44
580,092	26,44
580,431	26,44
580,77	26,42
581,109	26,38
581,448	26,35
581,787	26,31
582,126	26,33
582,465	26,32
582,804	26,35
583,143	26,42
583,482	26,44
583,82	26,45
584,159	26,48
584,498	26,47
584,836	26,45
585,175	26,41
585,514	26,4
585,852	26,39
586,19	26,44
586,529	26,44
586,867	26,51
587,205	26,51
587,544	26,49
587,882	26,5
588,22	26,55
588,558	26,57
588,896	26,65
589,234	26,64
589,572	26,69
589,91	26,67
590,248	26,65
590,586	26,64
590,924	26,62
591,262	26,64
591,599	26,67
591,937	26,71
592,275	26,72
592,612	26,72
592,95	26,72
593,287	26,68
593,625	26,72
593,962	26,73
594,299	26,76
594,637	26,8
594,974	26,81
595,311	26,82
595,648	26,82
595,985	26,73
596,322	26,75
596,659	26,72
596,996	26,71
597,333	26,71
597,67	26,7
598,007	26,71
598,344	26,71
598,681	26,74
599,017	26,72
599,354	26,74
599,691	26,77
600,027	26,78
600,364	26,79
600,7	26,8
601,037	26,82
601,373	26,82
601,71	26,84
602,046	26,89
602,382	26,88
602,718	26,89
603,054	26,92
603,391	26,93
603,727	26,93
604,063	27
604,399	27
604,735	27,02
605,071	27,03
605,406	27,01
605,742	27
606,078	27,02
606,414	27,02
606,749	27
607,085	27,01
607,421	27,03
607,756	27,02
608,092	27
608,427	26,96
608,762	26,95
609,098	26,9
609,433	26,91
609,768	26,88
610,104	26,88
610,439	26,86
610,774	26,87
611,109	26,81
611,444	26,83
611,779	26,83
612,114	26,85
612,449	26,86
612,784	26,85
613,118	26,82
613,453	26,8
613,788	26,81
614,123	26,76
614,457	26,68
614,792	26,66
615,126	26,64
615,461	26,67
615,795	26,67
616,13	26,7
616,464	26,66
616,798	26,72
617,132	26,73
617,467	26,73
617,801	26,75
618,135	26,77
618,469	26,77
618,803	26,78
619,137	26,74
619,471	26,73
619,805	26,7
620,139	26,72
620,472	26,75
620,806	26,76
621,14	26,79
621,473	26,83
621,807	26,82
622,141	26,83
622,474	26,8
622,808	26,83
623,141	26,8
623,474	26,85
623,808	26,83
624,141	26,88
624,474	26,91
624,807	26,89
625,141	26,86
625,474	26,87
625,807	26,88
626,14	26,85
626,473	26,87
626,806	26,88
627,138	26,87
627,471	26,89
627,804	26,86
628,137	26,87
628,469	26,84
628,802	26,85
629,135	26,86
629,467	26,95
629,8	26,94
630,132	26,95
630,465	26,97
630,797	27,02
631,129	26,94
631,461	26,91
631,794	26,93
632,126	26,93
632,458	26,88
632,79	26,85
633,122	26,96
633,454	26,95
633,786	26,94
634,118	26,94
634,45	26,98
634,781	27
635,113	27
635,445	27,02
635,777	27,02
636,108	27,01
636,44	26,9
636,771	26,9
637,103	26,93
637,434	26,85
637,765	26,8
638,097	26,87
638,428	26,87
638,759	26,88
639,09	26,94
639,422	26,99
639,753	27,01
640,084	26,93
640,415	26,97
640,746	26,98
641,077	26,94
641,407	26,89
641,738	26,88
642,069	26,87
642,4	26,84
642,73	26,83
643,061	26,84
643,392	26,91
643,722	26,89
644,053	26,86
644,383	26,91
644,713	26,94
645,044	26,91
645,374	26,93
645,704	26,88
646,034	26,82
646,365	26,81
646,695	26,8
647,025	26,87
647,355	26,81
647,685	26,84
648,015	26,84
648,344	26,82
648,674	26,84
649,004	26,89
649,334	26,97
649,663	27,01
649,993	27,05
650,323	27,04
650,652	27,01
650,982	27,01
651,311	26,96
651,64	26,89
651,97	26,86
652,299	26,84
652,628	26,83
652,958	26,85
653,287	26,84
653,616	26,77
653,945	26,69
654,274	26,71
654,603	26,65
654,932	26,72
655,261	26,72
655,589	26,75
655,918	26,76
656,247	26,79
656,576	26,81
656,904	26,84
657,233	26,86
657,561	26,91
657,89	26,93
658,218	26,95
658,547	27,01
658,875	27,05
659,203	27,06
659,532	27,07
659,86	27,14
660,188	27,1
660,516	27,18
660,844	27,18
661,172	27,2
661,5	27,18
661,828	27,14
662,156	27,13
662,484	27,14
662,811	27,12
663,139	27,01
663,467	27,01
663,794	26,96
664,122	26,94
664,45	26,92
664,777	26,91
665,104	26,91
665,432	26,85
665,759	26,86
666,086	26,89
666,414	26,94
666,741	26,88
667,068	26,9
667,395	26,89
667,722	26,94
668,049	26,95
668,376	26,96
668,703	26,99
669,03	27,02
669,357	27,03
669,683	27,09
670,01	27,14
670,337	27,08
670,663	27,04
670,99	27,07
671,317	27,12
671,643	27,16
671,969	27,15
672,296	27,18
672,622	27,19
672,948	27,18
673,275	27,18
673,601	27,19
673,927	27,29
674,253	27,36
674,579	27,33
674,905	27,3
675,231	27,48
675,557	27,53
675,883	27,54
676,209	27,47
676,534	27,43
676,86	27,54
677,186	27,61
677,511	27,73
677,837	27,73
678,162	27,75
678,488	27,68
678,813	27,72
679,139	27,74
679,464	27,73
679,789	27,73
680,114	27,72
680,44	27,77
680,765	27,72
681,09	27,65
681,415	27,68
681,74	27,71
682,065	27,59
682,39	27,5
682,714	27,47
683,039	27,49
683,364	27,55
683,689	27,46
684,013	27,44
684,338	27,4
684,662	27,4
684,987	27,34
685,311	27,46
685,636	27,42
685,96	27,42
686,284	27,41
686,608	27,41
686,933	27,42
687,257	27,39
687,581	27,33
687,905	27,35
688,229	27,31
688,553	27,28
688,877	27,3
689,201	27,38
689,524	27,45
689,848	27,49
690,172	27,44
690,496	27,44
690,819	27,4
691,143	27,38
691,466	27,38
691,79	27,49
692,113	27,46
692,436	27,48
692,76	27,51
693,083	27,51
693,406	27,55
693,729	27,51
694,053	27,52
694,376	27,64
694,699	27,64
695,022	27,72
695,344	27,79
695,667	27,87
695,99	27,94
696,313	27,92
696,636	27,95
696,958	27,87
697,281	27,81
697,604	27,88
697,926	27,88
698,249	27,88
698,571	27,76
698,893	27,75
699,216	27,78
699,538	27,75
699,86	27,74
700,182	27,76
700,504	27,79
700,827	27,73
701,149	27,69
701,471	27,71
701,793	27,7
702,114	27,65
702,436	27,51
702,758	27,46
703,08	27,42
703,401	27,28
703,723	27,36
704,045	27,45
704,366	27,41
704,688	27,41
705,009	27,38
705,331	27,4
705,652	27,4
705,973	27,33
706,294	27,33
706,616	27,47
706,937	27,4
707,258	27,32
707,579	27,43
707,9	27,45
708,221	27,51
708,542	27,5
708,863	27,59
709,183	27,7
709,504	27,69
709,825	27,71
710,145	27,82
710,466	27,9
710,787	27,88
711,107	27,9
711,427	27,9
711,748	27,97
712,068	28,06
712,388	28,11
712,709	28,15
713,029	28,27
713,349	28,18
713,669	28,29
713,989	28,44
714,309	28,52
714,629	28,56
714,949	28,5
715,269	28,6
715,589	28,55
715,908	28,49
716,228	28,48
716,548	28,52
716,867	28,5
717,187	28,44
717,506	28,54
717,826	28,56
718,145	28,65
718,465	28,6
718,784	28,59
719,103	28,57
719,422	28,67
719,741	28,63
720,061	28,66
720,38	28,72
720,699	28,72
721,018	28,69
721,336	28,71
721,655	28,83
721,974	28,86
722,293	28,91
722,612	29,08
722,93	29,17
723,249	29,18
723,567	29,15
723,886	29,24
724,204	29,27
724,523	29,26
724,841	29,37
725,159	29,59
725,477	29,64
725,796	29,81
726,114	29,93
726,432	30,02
726,75	30,28
727,068	30,33
727,386	30,41
727,704	30,5
728,022	30,63
728,339	30,72
728,657	30,77
728,975	30,93
729,292	31,05
729,61	31,12
729,928	31,22
730,245	31,36
730,562	31,39
730,88	31,42
731,197	31,53
731,514	31,62
731,832	31,61
732,149	31,73
732,466	31,71
732,783	31,77
733,1	31,82
733,417	31,76
733,734	31,81
734,051	31,86
734,368	31,96
734,684	32,03
735,001	32,18
735,318	32,19
735,634	32,21
735,951	32,25
736,268	32,34
736,584	32,42
736,9	32,5
737,217	32,66
737,533	32,84
737,849	33,01
738,166	33,07
738,482	33,16
738,798	33,34
739,114	33,48
739,43	33,55
739,746	33,69
740,062	33,83
740,378	33,86
740,693	33,95
741,009	33,82
741,325	33,88
741,641	33,83
741,956	33,93
742,272	34,02
742,587	34,04
742,903	34,21
743,218	34,31
743,533	34,37
743,849	34,43
744,164	34,48
744,479	34,42
744,794	34,31
745,109	34,5
745,424	34,48
745,739	34,45
746,054	34,39
746,369	34,3
746,684	34,39
746,999	34,4
747,313	34,52
747,628	34,73
747,943	34,73
748,257	34,74
748,572	34,82
748,886	34,81
749,201	34,87
749,515	34,73
749,829	34,66
750,144	34,7
750,458	34,81
750,772	34,76
751,086	34,86
751,4	34,98
751,714	34,78
752,028	34,78
752,342	34,94
752,656	35,11
752,97	35,23
753,284	35,24
753,597	35,25
753,911	35,2
754,225	35,14
754,538	35,19
754,852	35,39
755,165	35,29
755,478	35,37
755,792	35,43
756,105	35,73
756,418	35,85
756,731	35,83
757,045	35,77
757,358	35,85
757,671	35,83
757,984	35,84
758,297	36,07
758,609	36,18
758,922	36,1
759,235	36,04
759,548	36,01
759,86	35,92
760,173	35,83
760,486	35,69
760,798	35,64
761,111	35,56
761,423	35,37
761,735	35,42
762,048	35,38
762,36	35,47
762,672	35,31
762,984	35,33
763,296	35,37
763,608	35,37
763,92	35,42
764,232	35,49
764,544	35,67
764,856	35,77
765,168	35,95
765,48	36,16
765,791	36,34
766,103	36,49
766,414	36,63
766,726	36,88
767,037	37,13
767,349	37,56
767,66	37,96
767,972	38,34
768,283	38,74
768,594	39,02
768,905	39,09
769,216	39,3
769,527	39,55
769,838	39,69
770,149	39,97
770,46	40,24
770,771	40,46
771,082	40,48
771,393	40,3
771,703	40,26
772,014	40,28
772,324	40,22
772,635	40,3
772,945	40,44
773,256	40,72
773,566	40,88
773,877	40,87
774,187	40,99
774,497	41,26
774,807	41,41
775,117	41,86
775,427	41,98
775,737	42,14
776,047	42,27
776,357	42,7
776,667	42,85
776,977	42,82
777,287	42,84
777,596	43,02
777,906	43,28
778,216	43,27
778,525	43,13
778,835	43,31
779,144	43,2
779,453	43,24
779,763	43,36
780,072	43,5
780,381	43,53
780,69	43,57
781	43,55
781,309	43,54
781,618	43,43
781,927	43,71
782,235	43,87
782,544	43,96
782,853	43,79
783,162	43,9
783,471	43,93
783,779	43,7
784,088	43,73
784,396	43,7
784,705	43,51
785,013	43,76
785,322	43,82
785,63	43,96
785,938	43,83
786,246	43,78
786,554	43,66
786,863	43,55
787,171	43,29
787,479	43,18
787,787	43,36
788,094	43,19
788,402	42,79
788,71	42,78
789,018	42,68
789,326	43,07
789,633	43,2
789,941	43,42
790,248	43,82
790,556	43,77
790,863	44,04
791,171	44,25
791,478	43,95
791,785	43,76
792,092	43,83
792,399	43,98
792,707	44,03
793,014	44,24
793,321	44,38
793,628	44,56
793,934	44,46
794,241	44,05
794,548	44,11
794,855	44,39
795,161	44,47
795,468	44,58
795,775	44,26
796,081	44,1
796,388	44,1
796,694	44,19
797	44,18
797,307	44,11
797,613	44,31
797,919	44,8
798,225	44,97
798,531	44,96
798,837	45,02
799,143	45,27
799,449	45,23
799,755	45,23
800,061	45,33
800,367	45,38
800,672	45,76
800,978	45,94
801,284	45,91
801,589	45,73
801,895	46,02
802,2	46,37
802,506	46,36
802,811	46,37
803,116	46,34
803,421	46,51
803,727	46,4
804,032	46,15
804,337	45,75
804,642	45,95
804,947	46,39
805,252	46,53
805,556	46,39
805,861	46,65
806,166	46,94
806,471	47,04
806,775	47,45
807,08	47,36
807,384	47,65
807,689	47,97
807,993	48,03
808,298	47,76
808,602	47,71
808,906	47,77
809,211	47,88
809,515	48,17
809,819	48,33
810,123	48,44
810,427	48,81
810,731	49,22
811,035	49,32
811,338	49,39
811,642	49,71
811,946	49,78
812,25	49,86
812,553	49,73
812,857	49,98
813,16	49,87
813,464	50,03
813,767	49,78
814,07	49,78
814,374	49,96
814,677	50,32
814,98	50,27
815,283	50,4
815,586	50,55
815,889	50,38
816,192	50,22
816,495	50,29
816,798	50,22
817,101	49,99
817,404	49,36
817,706	48,67
818,009	47,71
818,312	47,26
818,614	46,24
818,917	44,91
819,219	42,79
819,521	41,36
819,824	39,87
820,126	38,6
820,428	37,69
820,73	37,07
821,032	36,46
821,334	36,07
821,636	35,95
821,938	35,76
822,24	35,59
822,542	35,54
822,844	35,46
823,145	35,31
823,447	35,23
823,749	35,29
824,05	35,27
824,352	35,23
824,653	35,05
824,955	35,06
825,256	35,14
825,557	35,38
825,858	35,39
826,16	35,57
826,461	35,88
826,762	36,2
827,063	36,61
827,364	37,1
827,665	37,61
827,965	37,91
828,266	38,16
828,567	38,5
828,868	38,67
829,168	38,86
829,469	39,22
829,769	39,47
830,07	39,48
830,37	39,75
830,67	40,07
830,971	40,46
831,271	40,59
831,571	40,85
831,871	40,85
832,171	41,17
832,471	41,53
832,771	41,85
833,071	41,9
833,371	42,01
833,671	42,31
833,971	42,43
834,27	42,36
834,57	42,51
834,869	42,66
835,169	42,71
835,468	42,79
835,768	42,64
836,067	42,5
836,367	42,68
836,666	42,84
836,965	43,23
837,264	43,84
837,563	44,47
837,862	45,26
838,161	45,97
838,46	47,12
838,759	47,65
839,058	48,15
839,356	48,63
839,655	49,03
839,954	49,35
840,252	49,74
840,551	50,15
840,849	50,73
841,148	51,27
841,446	52,02
841,744	52,49
842,043	53,1
842,341	53,79
842,639	54,1
842,937	54,17
843,235	54,68
843,533	55,43
843,831	56,01
844,129	56
844,427	56,96
844,724	57,2
845,022	58
845,32	59,2
845,617	60,63
845,915	62,14
846,212	62,64
846,51	63,53
846,807	64,47
847,104	64,4
847,402	65,12
847,699	64,87
847,996	65,64
848,293	65,95
848,59	66,13
848,887	67,22
849,184	67,58
849,481	67,7
849,778	67,39
850,074	67,88
850,371	67,78
850,668	67,84
850,964	67,74
851,261	67,94
851,557	69,18
851,854	69,75
852,15	69,64
852,446	70,05
852,743	69,6
853,039	68,8
853,335	69,57
853,631	69,09
853,927	69,63
854,223	68,64
854,519	67,85
854,815	66,74
855,111	66,23
855,406	66,1
855,702	66,23
855,998	66,14
856,293	65,85
856,589	66,54
856,884	66,62
857,18	66,62
857,475	66,77
857,77	65,13
858,066	65
858,361	64,87
858,656	64,55
858,951	65,06
859,246	66,3
859,541	65,73
859,836	65,9
860,131	65,59
860,426	66,45
860,72	67,85
861,015	68,63
861,31	68,18
861,604	68,54
861,899	67,97
862,193	68,83
862,487	68,98
862,782	68,8
863,076	69,18
863,37	69,34
863,664	69,74
863,959	69,95
864,253	69,64
864,547	69,84
864,841	70,59
865,135	70,37
865,428	69,06
865,722	69,52
866,016	68,98
866,31	69,42
866,603	70,43
866,897	71,22
867,19	72,04
867,484	72,26
867,777	71,93
868,07	72,78
868,364	72,08
868,657	71,39
868,95	71,35
869,243	70,48
869,536	71,12
869,829	71,44
870,122	71,73
870,415	71,83
870,708	70,82
871	70,5
871,293	70,58
871,586	72,39
871,878	71,92
872,171	73,03
872,463	72,87
872,756	71,21
873,048	69,21
873,341	68,74
873,633	69,02
873,925	69,37
874,217	68,73
874,509	68,6
874,801	69,7
875,093	70,28
875,385	71,27
875,677	70,84
875,969	70,28
