Data from zc74019_2_Reflection_00002.txt Node
Date: Thu Mar 12 14:41:32 ART 2020
User: Ana
Spectrometer: USB2E3644
Trigger mode: 4
Integration Time (sec): 5,000000E-2
Scans to average: 10
Electric dark correction enabled: true
Nonlinearity correction enabled: false
Boxcar width: 10
XAxis mode: Wavelengths
Number of Pixels in Spectrum: 2048
>>>>>Begin Spectral Data<<<<<
178,315	92,35
178,696	83,33
179,076	68,44
179,457	62,96
179,838	64,23
180,218	80,42
180,599	88,89
180,979	17,24
181,36	168,89
181,74	163,49
182,121	170,51
182,501	151,57
182,881	153,88
183,262	135,28
183,642	128,28
184,022	122,85
184,402	122,35
184,783	122,62
185,163	120,76
185,543	120,46
185,923	123,7
186,303	123,39
186,683	123,38
187,063	124,02
187,443	124,78
187,823	128,97
188,203	133,67
188,583	135,42
188,963	134,05
189,343	131,99
189,723	127,19
190,102	123,78
190,482	119
190,862	117,61
191,242	120,31
191,621	123,03
192,001	121,96
192,38	123,19
192,76	122,07
193,14	118,96
193,519	118,53
193,898	118,51
194,278	118,46
194,657	116,83
195,037	113,94
195,416	111,92
195,795	111,62
196,175	113,31
196,554	114,81
196,933	115,86
197,312	117,55
197,692	120,99
198,071	122,68
198,45	124,32
198,829	126,04
199,208	126,21
199,587	125,81
199,966	125,01
200,345	123,11
200,724	124,65
201,103	127,32
201,482	126,59
201,86	124,37
202,239	122,83
202,618	123,02
202,997	122,8
203,375	123,45
203,754	123,65
204,133	122,4
204,511	121,27
204,89	121,35
205,269	120,55
205,647	117,76
206,026	116,59
206,404	118,04
206,782	118,91
207,161	119,28
207,539	119,73
207,918	122,7
208,296	125,14
208,674	124,56
209,052	124,62
209,431	126,42
209,809	129,2
210,187	132,56
210,565	134,41
210,943	136,49
211,321	137,23
211,699	136,59
212,077	135,84
212,455	135,76
212,833	136,2
213,211	136,27
213,589	139,37
213,967	140,65
214,345	138,43
214,722	134,2
215,1	133,08
215,478	131,32
215,855	128,38
216,233	125,13
216,611	122,06
216,988	119,45
217,366	116,26
217,743	116,24
218,121	116,01
218,498	114,95
218,876	114,07
219,253	115,04
219,631	116,67
220,008	117,35
220,385	116,15
220,762	114,97
221,14	114,75
221,517	111,88
221,894	111,06
222,271	112,02
222,648	114,99
223,025	117,28
223,402	117,56
223,78	117,55
224,157	120,32
224,533	126,26
224,91	133,7
225,287	142,59
225,664	149,66
226,041	155,67
226,418	161,31
226,795	167,77
227,171	174,73
227,548	178,98
227,925	181,19
228,301	188,29
228,678	193,22
229,055	193,56
229,431	201,56
229,808	206,7
230,184	206,53
230,561	212,69
230,937	221,85
231,313	233,73
231,69	240,63
232,066	242,2
232,442	233,33
232,819	225,54
233,195	220,63
233,571	219,11
233,947	214,47
234,323	214,5
234,699	217,11
235,075	218,28
235,451	222,42
235,827	228,51
236,203	236,86
236,579	250,8
236,955	274,41
237,331	298,46
237,707	343,36
238,083	425,74
238,459	563,01
238,834	998,21
239,21	6215,56
239,586	-1411,28
239,961	-814,45
240,337	-586,29
240,713	-507,29
241,088	-467,34
241,464	-436,31
241,839	-398,02
242,215	-333,1
242,59	-261,63
242,965	-183,11
243,341	-129,52
243,716	-96,04
244,091	-80,16
244,467	-71,28
244,842	-64,3
245,217	-59,12
245,592	-56,75
245,967	-56,89
246,343	-55,91
246,718	-55,55
247,093	-56,2
247,468	-57,79
247,843	-57,28
248,218	-54,61
248,593	-50,39
248,967	-46,31
249,342	-44,27
249,717	-43,52
250,092	-43,52
250,467	-44,61
250,841	-47,93
251,216	-53,64
251,591	-62,26
251,965	-70,08
252,34	-75,34
252,714	-81,65
253,089	-86,19
253,463	-89,18
253,838	-88,08
254,212	-85,72
254,587	-82,55
254,961	-75,76
255,335	-66,4
255,71	-56,42
256,084	-46,06
256,458	-39
256,832	-34,26
257,206	-31,45
257,581	-29,4
257,955	-27,84
258,329	-26,51
258,703	-25,22
259,077	-24,07
259,451	-22,92
259,825	-22,26
260,199	-22,42
260,572	-22,09
260,946	-22,09
261,32	-21,57
261,694	-20,94
262,068	-20,57
262,441	-20,34
262,815	-20,46
263,189	-20,36
263,562	-20,56
263,936	-21,98
264,309	-23,86
264,683	-25,96
265,056	-26,99
265,43	-27,61
265,803	-27,65
266,176	-27,18
266,55	-26,65
266,923	-26,15
267,296	-25,3
267,67	-24,26
268,043	-23,13
268,416	-21,86
268,789	-20,36
269,162	-18,97
269,535	-17,75
269,908	-16,81
270,281	-16,19
270,654	-15,87
271,027	-16,09
271,4	-16,3
271,773	-16,24
272,146	-16,14
272,519	-16,06
272,891	-15,9
273,264	-15,83
273,637	-15,83
274,01	-15,52
274,382	-15,87
274,755	-16,24
275,127	-16,66
275,5	-16,92
275,872	-16,98
276,245	-17,41
276,617	-18,31
276,99	-19,18
277,362	-20,15
277,734	-20,69
278,107	-20,64
278,479	-20,36
278,851	-20,37
279,223	-20,25
279,596	-20,24
279,968	-20,35
280,34	-20,28
280,712	-19,96
281,084	-19,17
281,456	-18,36
281,828	-17,81
282,2	-16,66
282,572	-15,65
282,944	-14,88
283,315	-14,48
283,687	-14,23
284,059	-14,09
284,431	-13,84
284,802	-13,53
285,174	-13,06
285,546	-12,79
285,917	-12,53
286,289	-12,27
286,66	-12,05
287,032	-11,86
287,403	-11,56
287,775	-11,31
288,146	-11,27
288,518	-11,51
288,889	-11,63
289,26	-11,71
289,632	-11,86
290,003	-12,21
290,374	-12,37
290,745	-12,51
291,116	-12,64
291,487	-12,51
291,858	-12,24
292,229	-11,99
292,6	-11,74
292,971	-11,4
293,342	-11,04
293,713	-10,65
294,084	-10,38
294,455	-9,88
294,826	-9,68
295,196	-9,81
295,567	-10,05
295,938	-10,08
296,308	-9,94
296,679	-9,84
297,05	-9,71
297,42	-9,61
297,791	-9,37
298,161	-9,24
298,532	-9,02
298,902	-8,78
299,272	-8,71
299,643	-8,67
300,013	-8,37
300,383	-8,15
300,754	-8,19
301,124	-8,33
301,494	-8,54
301,864	-8,67
302,234	-8,83
302,604	-8,81
302,974	-8,58
303,344	-8,18
303,714	-7,82
304,084	-7,4
304,454	-7,17
304,824	-7,03
305,194	-6,94
305,563	-6,84
305,933	-6,7
306,303	-6,64
306,673	-6,44
307,042	-6,15
307,412	-5,84
307,781	-5,61
308,151	-5,52
308,521	-5,45
308,89	-5,24
309,259	-5,13
309,629	-5,07
309,998	-4,96
310,368	-4,9
310,737	-4,85
311,106	-4,79
311,475	-4,83
311,845	-4,92
312,214	-4,87
312,583	-4,91
312,952	-4,92
313,321	-4,94
313,69	-4,85
314,059	-4,82
314,428	-4,93
314,797	-5,1
315,166	-5,21
315,535	-5,39
315,904	-5,67
316,272	-6
316,641	-6,3
317,01	-6,43
317,379	-6,37
317,747	-6,21
318,116	-6,04
318,484	-6,04
318,853	-6,15
319,221	-6,04
319,59	-6,05
319,958	-6,16
320,327	-6,19
320,695	-6,14
321,063	-6,07
321,432	-6
321,8	-5,76
322,168	-5,49
322,536	-5,45
322,905	-5,31
323,273	-5,09
323,641	-4,9
324,009	-4,6
324,377	-4,34
324,745	-4,15
325,113	-4,02
325,481	-3,89
325,849	-3,8
326,216	-3,65
326,584	-3,43
326,952	-3,39
327,32	-3,21
327,687	-3
328,055	-2,75
328,423	-2,57
328,79	-2,49
329,158	-2,51
329,525	-2,59
329,893	-2,66
330,26	-2,5
330,628	-2,53
330,995	-2,55
331,362	-2,51
331,73	-2,5
332,097	-2,53
332,464	-2,5
332,831	-2,38
333,199	-2,4
333,566	-2,32
333,933	-2,24
334,3	-2,17
334,667	-2,01
335,034	-1,91
335,401	-1,86
335,768	-1,84
336,135	-1,82
336,502	-1,73
336,868	-1,64
337,235	-1,57
337,602	-1,46
337,969	-1,32
338,335	-1,19
338,702	-1,07
339,069	-0,98
339,435	-0,94
339,802	-0,78
340,168	-0,7
340,535	-0,63
340,901	-0,66
341,267	-0,73
341,634	-0,7
342	-0,67
342,366	-0,63
342,733	-0,6
343,099	-0,53
343,465	-0,54
343,831	-0,57
344,197	-0,54
344,563	-0,51
344,929	-0,5
345,295	-0,36
345,661	-0,25
346,027	-0,17
346,393	-0,16
346,759	-0,04
347,125	0,1
347,491	0,13
347,856	0,13
348,222	0,04
348,588	0,15
348,953	0,29
349,319	0,34
349,684	0,44
350,05	0,45
350,415	0,51
350,781	0,53
351,146	0,61
351,512	0,69
351,877	0,69
352,242	0,75
352,608	0,82
352,973	0,81
353,338	0,78
353,703	0,85
354,068	0,88
354,433	0,86
354,798	0,82
355,164	0,85
355,528	0,9
355,893	0,98
356,258	0,96
356,623	1,03
356,988	1,17
357,353	1,21
357,718	1,24
358,082	1,24
358,447	1,26
358,812	1,33
359,176	1,41
359,541	1,48
359,905	1,5
360,27	1,48
360,634	1,5
360,999	1,58
361,363	1,61
361,728	1,72
362,092	1,77
362,456	1,84
362,821	1,9
363,185	1,95
363,549	2,02
363,913	2,09
364,277	2,11
364,641	2,04
365,005	2,04
365,369	2,07
365,733	2,15
366,097	2,23
366,461	2,28
366,825	2,35
367,189	2,43
367,553	2,54
367,916	2,69
368,28	2,8
368,644	2,83
369,007	2,87
369,371	2,9
369,734	3
370,098	3,08
370,461	3,14
370,825	3,21
371,188	3,28
371,552	3,38
371,915	3,44
372,278	3,57
372,642	3,68
373,005	3,79
373,368	3,9
373,731	3,97
374,094	4,06
374,457	4,11
374,82	4,16
375,183	4,19
375,546	4,21
375,909	4,23
376,272	4,3
376,635	4,37
376,998	4,43
377,361	4,45
377,723	4,49
378,086	4,55
378,449	4,61
378,811	4,65
379,174	4,67
379,537	4,68
379,899	4,68
380,262	4,65
380,624	4,67
380,987	4,71
381,349	4,77
381,711	4,83
382,074	4,93
382,436	5,01
382,798	5,11
383,16	5,15
383,522	5,2
383,884	5,2
384,247	5,21
384,609	5,27
384,971	5,32
385,333	5,34
385,695	5,36
386,056	5,34
386,418	5,31
386,78	5,34
387,142	5,39
387,504	5,43
387,865	5,5
388,227	5,53
388,589	5,55
388,95	5,55
389,312	5,52
389,673	5,5
390,035	5,5
390,396	5,51
390,758	5,54
391,119	5,57
391,48	5,6
391,842	5,63
392,203	5,62
392,564	5,62
392,925	5,65
393,286	5,67
393,648	5,7
394,009	5,74
394,37	5,76
394,731	5,78
395,092	5,78
395,452	5,79
395,813	5,78
396,174	5,77
396,535	5,77
396,896	5,78
397,257	5,81
397,617	5,84
397,978	5,85
398,338	5,86
398,699	5,9
399,06	5,94
399,42	5,92
399,781	5,93
400,141	5,96
400,501	5,98
400,862	6,01
401,222	6,03
401,582	6,03
401,943	6,02
402,303	6,01
402,663	6,04
403,023	6,05
403,383	6,09
403,743	6,1
404,103	6,13
404,463	6,17
404,823	6,2
405,183	6,22
405,543	6,24
405,903	6,24
406,262	6,22
406,622	6,19
406,982	6,2
407,342	6,23
407,701	6,24
408,061	6,23
408,42	6,24
408,78	6,26
409,139	6,27
409,499	6,29
409,858	6,28
410,217	6,3
410,577	6,29
410,936	6,27
411,295	6,27
411,655	6,24
412,014	6,2
412,373	6,16
412,732	6,12
413,091	6,07
413,45	6,06
413,809	6,03
414,168	5,98
414,527	5,93
414,886	5,88
415,245	5,84
415,603	5,8
415,962	5,77
416,321	5,74
416,679	5,68
417,038	5,64
417,397	5,62
417,755	5,57
418,114	5,54
418,472	5,53
418,831	5,53
419,189	5,53
419,547	5,51
419,906	5,49
420,264	5,46
420,622	5,43
420,981	5,4
421,339	5,38
421,697	5,39
422,055	5,42
422,413	5,43
422,771	5,45
423,129	5,46
423,487	5,48
423,845	5,51
424,203	5,55
424,56	5,59
424,918	5,62
425,276	5,66
425,634	5,69
425,991	5,71
426,349	5,73
426,707	5,76
427,064	5,78
427,422	5,81
427,779	5,86
428,137	5,94
428,494	6,01
428,851	6,04
429,209	6,07
429,566	6,05
429,923	6,05
430,28	6,02
430,637	6,02
430,995	5,99
431,352	5,97
431,709	5,97
432,066	5,97
432,423	5,97
432,78	5,97
433,137	5,97
433,493	5,94
433,85	5,95
434,207	5,92
434,564	5,92
434,92	5,92
435,277	5,9
435,634	5,89
435,99	5,85
436,347	5,84
436,703	5,84
437,06	5,83
437,416	5,83
437,773	5,84
438,129	5,82
438,485	5,83
438,841	5,83
439,198	5,82
439,554	5,82
439,91	5,82
440,266	5,81
440,622	5,82
440,978	5,83
441,334	5,78
441,69	5,78
442,046	5,77
442,402	5,75
442,758	5,74
443,113	5,72
443,469	5,72
443,825	5,73
444,181	5,73
444,536	5,75
444,892	5,77
445,247	5,79
445,603	5,81
445,958	5,81
446,314	5,81
446,669	5,81
447,025	5,81
447,38	5,81
447,735	5,83
448,09	5,83
448,446	5,84
448,801	5,86
449,156	5,88
449,511	5,91
449,866	5,95
450,221	5,98
450,576	6,02
450,931	6,07
451,286	6,09
451,641	6,11
451,995	6,14
452,35	6,16
452,705	6,16
453,06	6,16
453,414	6,17
453,769	6,18
454,123	6,17
454,478	6,16
454,832	6,15
455,187	6,11
455,541	6,1
455,896	6,07
456,25	6,05
456,604	6,03
456,958	6,01
457,313	5,99
457,667	5,98
458,021	6
458,375	6
458,729	6,03
459,083	6,03
459,437	6,03
459,791	6,03
460,145	6,03
460,499	6,02
460,852	6,02
461,206	6,02
461,56	6,02
461,914	6,04
462,267	6,04
462,621	6,06
462,974	6,07
463,328	6,09
463,681	6,11
464,035	6,13
464,388	6,15
464,742	6,17
465,095	6,18
465,448	6,17
465,801	6,16
466,155	6,14
466,508	6,14
466,861	6,12
467,214	6,11
467,567	6,11
467,92	6,14
468,273	6,15
468,626	6,15
468,979	6,15
469,332	6,15
469,684	6,16
470,037	6,16
470,39	6,16
470,743	6,17
471,095	6,19
471,448	6,2
471,8	6,19
472,153	6,2
472,505	6,22
472,858	6,21
473,21	6,21
473,562	6,22
473,915	6,22
474,267	6,21
474,619	6,21
474,971	6,2
475,324	6,18
475,676	6,18
476,028	6,2
476,38	6,19
476,732	6,2
477,084	6,2
477,436	6,19
477,787	6,19
478,139	6,18
478,491	6,17
478,843	6,15
479,195	6,14
479,546	6,09
479,898	6,02
480,249	5,94
480,601	5,88
480,952	5,84
481,304	5,85
481,655	5,86
482,007	5,87
482,358	5,88
482,709	5,89
483,061	5,88
483,412	5,87
483,763	5,86
484,114	5,85
484,465	5,83
484,816	5,84
485,167	5,84
485,518	5,84
485,869	5,85
486,22	5,87
486,571	5,88
486,922	5,9
487,272	5,93
487,623	5,96
487,974	6
488,324	6,01
488,675	5,99
489,025	5,99
489,376	5,99
489,726	5,99
490,077	6
490,427	6,03
490,778	6,05
491,128	6,08
491,478	6,1
491,828	6,14
492,179	6,16
492,529	6,18
492,879	6,18
493,229	6,19
493,579	6,18
493,929	6,18
494,279	6,19
494,629	6,21
494,979	6,25
495,328	6,29
495,678	6,34
496,028	6,39
496,378	6,4
496,727	6,41
497,077	6,42
497,426	6,4
497,776	6,37
498,125	6,36
498,475	6,37
498,824	6,37
499,174	6,37
499,523	6,38
499,872	6,4
500,221	6,41
500,571	6,41
500,92	6,42
501,269	6,43
501,618	6,44
501,967	6,43
502,316	6,43
502,665	6,42
503,014	6,41
503,363	6,42
503,711	6,45
504,06	6,45
504,409	6,45
504,758	6,45
505,106	6,46
505,455	6,46
505,803	6,46
506,152	6,44
506,5	6,45
506,849	6,45
507,197	6,45
507,546	6,46
507,894	6,46
508,242	6,47
508,59	6,44
508,939	6,43
509,287	6,44
509,635	6,44
509,983	6,47
510,331	6,49
510,679	6,5
511,027	6,49
511,375	6,5
511,723	6,52
512,07	6,53
512,418	6,54
512,766	6,56
513,114	6,58
513,461	6,59
513,809	6,57
514,156	6,55
514,504	6,54
514,851	6,52
515,199	6,51
515,546	6,5
515,893	6,53
516,241	6,54
516,588	6,55
516,935	6,55
517,282	6,55
517,63	6,57
517,977	6,58
518,324	6,59
518,671	6,6
519,018	6,6
519,365	6,59
519,711	6,59
520,058	6,61
520,405	6,61
520,752	6,62
521,099	6,64
521,445	6,67
521,792	6,67
522,138	6,68
522,485	6,67
522,832	6,67
523,178	6,67
523,524	6,65
523,871	6,65
524,217	6,65
524,563	6,58
524,91	6,49
525,256	6,43
525,602	6,4
525,948	6,39
526,294	6,4
526,64	6,41
526,986	6,42
527,332	6,41
527,678	6,43
528,024	6,43
528,37	6,45
528,716	6,44
529,061	6,46
529,407	6,46
529,753	6,46
530,098	6,45
530,444	6,45
530,789	6,45
531,135	6,45
531,48	6,46
531,826	6,5
532,171	6,56
532,516	6,62
532,862	6,65
533,207	6,65
533,552	6,65
533,897	6,64
534,242	6,64
534,587	6,64
534,932	6,65
535,277	6,67
535,622	6,67
535,967	6,68
536,312	6,68
536,657	6,7
537,001	6,72
537,346	6,72
537,691	6,7
538,035	6,68
538,38	6,65
538,724	6,64
539,069	6,63
539,413	6,63
539,758	6,63
540,102	6,64
540,446	6,64
540,791	6,66
541,135	6,67
541,479	6,68
541,823	6,68
542,167	6,65
542,512	6,64
542,856	6,62
543,2	6,61
543,543	6,6
543,887	6,6
544,231	6,62
544,575	6,66
544,919	6,69
545,262	6,74
545,606	6,79
545,95	6,81
546,293	6,82
546,637	6,8
546,98	6,8
547,324	6,82
547,667	6,86
548,011	6,86
548,354	6,86
548,697	6,84
549,04	6,86
549,384	6,89
549,727	6,89
550,07	6,91
550,413	6,91
550,756	6,92
551,099	6,92
551,442	6,92
551,785	6,9
552,128	6,91
552,47	6,88
552,813	6,87
553,156	6,86
553,499	6,84
553,841	6,85
554,184	6,85
554,526	6,84
554,869	6,81
555,211	6,81
555,554	6,8
555,896	6,78
556,238	6,75
556,581	6,7
556,923	6,69
557,265	6,67
557,607	6,66
557,949	6,66
558,291	6,66
558,633	6,64
558,975	6,62
559,317	6,6
559,659	6,6
560,001	6,57
560,343	6,53
560,685	6,52
561,026	6,5
561,368	6,47
561,71	6,42
562,051	6,39
562,393	6,37
562,734	6,33
563,076	6,32
563,417	6,32
563,759	6,33
564,1	6,33
564,441	6,32
564,782	6,3
565,124	6,28
565,465	6,27
565,806	6,25
566,147	6,24
566,488	6,23
566,829	6,24
567,17	6,24
567,511	6,23
567,851	6,22
568,192	6,21
568,533	6,19
568,874	6,19
569,214	6,21
569,555	6,18
569,895	6,19
570,236	6,18
570,576	6,17
570,917	6,17
571,257	6,15
571,598	6,14
571,938	6,14
572,278	6,15
572,618	6,15
572,959	6,14
573,299	6,11
573,639	6,11
573,979	6,09
574,319	6,08
574,659	6,08
574,999	6,07
575,339	6,07
575,678	6,07
576,018	6,07
576,358	6,06
576,698	6,06
577,037	6,03
577,377	6,02
577,716	6,02
578,056	5,99
578,395	5,96
578,735	5,95
579,074	5,93
579,413	5,87
579,753	5,82
580,092	5,76
580,431	5,77
580,77	5,74
581,109	5,72
581,448	5,7
581,787	5,67
582,126	5,66
582,465	5,64
582,804	5,62
583,143	5,63
583,482	5,59
583,82	5,59
584,159	5,6
584,498	5,59
584,836	5,59
585,175	5,58
585,514	5,58
585,852	5,56
586,19	5,56
586,529	5,59
586,867	5,61
587,205	5,64
587,544	5,66
587,882	5,67
588,22	5,68
588,558	5,68
588,896	5,7
589,234	5,7
589,572	5,7
589,91	5,71
590,248	5,68
590,586	5,67
590,924	5,68
591,262	5,69
591,599	5,69
591,937	5,7
592,275	5,7
592,612	5,73
592,95	5,74
593,287	5,76
593,625	5,76
593,962	5,77
594,299	5,79
594,637	5,81
594,974	5,83
595,311	5,86
595,648	5,88
595,985	5,91
596,322	5,92
596,659	5,94
596,996	5,96
597,333	5,98
597,67	6,01
598,007	6,02
598,344	6,02
598,681	6,02
599,017	6,01
599,354	6,01
599,691	6,01
600,027	6,03
600,364	6,02
600,7	6,03
601,037	6,05
601,373	6,06
601,71	6,07
602,046	6,07
602,382	6,08
602,718	6,08
603,054	6,1
603,391	6,12
603,727	6,13
604,063	6,14
604,399	6,15
604,735	6,15
605,071	6,13
605,406	6,14
605,742	6,15
606,078	6,16
606,414	6,18
606,749	6,2
607,085	6,22
607,421	6,25
607,756	6,27
608,092	6,28
608,427	6,3
608,762	6,28
609,098	6,27
609,433	6,23
609,768	6,21
610,104	6,2
610,439	6,17
610,774	6,14
611,109	6,12
611,444	6,09
611,779	6,06
612,114	6,08
612,449	6,08
612,784	6,07
613,118	6,05
613,453	6,01
613,788	5,99
614,123	5,94
614,457	5,87
614,792	5,83
615,126	5,81
615,461	5,77
615,795	5,78
616,13	5,75
616,464	5,76
616,798	5,73
617,132	5,7
617,467	5,68
617,801	5,67
618,135	5,67
618,469	5,66
618,803	5,68
619,137	5,68
619,471	5,67
619,805	5,67
620,139	5,72
620,472	5,75
620,806	5,77
621,14	5,76
621,473	5,78
621,807	5,78
622,141	5,76
622,474	5,75
622,808	5,73
623,141	5,75
623,474	5,77
623,808	5,8
624,141	5,85
624,474	5,91
624,807	5,95
625,141	5,98
625,474	6,02
625,807	6,05
626,14	6,06
626,473	6,07
626,806	6,08
627,138	6,07
627,471	6,05
627,804	6,05
628,137	6,08
628,469	6,09
628,802	6,09
629,135	6,07
629,467	6,08
629,8	6,11
630,132	6,1
630,465	6,1
630,797	6,08
631,129	6,06
631,461	6,04
631,794	6,02
632,126	6,01
632,458	5,99
632,79	5,99
633,122	5,98
633,454	5,97
633,786	5,97
634,118	5,97
634,45	5,96
634,781	5,96
635,113	5,94
635,445	5,95
635,777	5,97
636,108	6,01
636,44	5,99
636,771	5,98
637,103	5,99
637,434	6
637,765	6
638,097	5,98
638,428	5,97
638,759	5,95
639,09	5,96
639,422	5,98
639,753	5,99
640,084	6,02
640,415	6,03
640,746	6,03
641,077	6,08
641,407	6,09
641,738	6,09
642,069	6,1
642,4	6,11
642,73	6,12
643,061	6,11
643,392	6,11
643,722	6,14
644,053	6,14
644,383	6,15
644,713	6,16
645,044	6,18
645,374	6,22
645,704	6,22
646,034	6,19
646,365	6,17
646,695	6,16
647,025	6,19
647,355	6,24
647,685	6,26
648,015	6,25
648,344	6,25
648,674	6,26
649,004	6,26
649,334	6,27
649,663	6,27
649,993	6,3
650,323	6,37
650,652	6,36
650,982	6,38
651,311	6,38
651,64	6,38
651,97	6,42
652,299	6,4
652,628	6,41
652,958	6,45
653,287	6,49
653,616	6,52
653,945	6,45
654,274	6,39
654,603	6,37
654,932	6,34
655,261	6,33
655,589	6,34
655,918	6,34
656,247	6,35
656,576	6,38
656,904	6,41
657,233	6,41
657,561	6,43
657,89	6,44
658,218	6,47
658,547	6,5
658,875	6,49
659,203	6,49
659,532	6,5
659,86	6,51
660,188	6,52
660,516	6,55
660,844	6,59
661,172	6,63
661,5	6,68
661,828	6,73
662,156	6,75
662,484	6,76
662,811	6,79
663,139	6,83
663,467	6,8
663,794	6,76
664,122	6,77
664,45	6,76
664,777	6,71
665,104	6,7
665,432	6,68
665,759	6,68
666,086	6,69
666,414	6,7
666,741	6,67
667,068	6,67
667,395	6,61
667,722	6,6
668,049	6,59
668,376	6,55
668,703	6,51
669,03	6,52
669,357	6,49
669,683	6,44
670,01	6,4
670,337	6,39
670,663	6,41
670,99	6,38
671,317	6,42
671,643	6,45
671,969	6,44
672,296	6,45
672,622	6,44
672,948	6,43
673,275	6,41
673,601	6,39
673,927	6,32
674,253	6,33
674,579	6,32
674,905	6,33
675,231	6,35
675,557	6,38
675,883	6,34
676,209	6,36
676,534	6,38
676,86	6,39
677,186	6,4
677,511	6,4
677,837	6,41
678,162	6,41
678,488	6,45
678,813	6,48
679,139	6,5
679,464	6,53
679,789	6,53
680,114	6,58
680,44	6,63
680,765	6,67
681,09	6,67
681,415	6,65
681,74	6,64
682,065	6,64
682,39	6,63
682,714	6,67
683,039	6,68
683,364	6,7
683,689	6,68
684,013	6,68
684,338	6,66
684,662	6,61
684,987	6,59
685,311	6,57
685,636	6,57
685,96	6,51
686,284	6,46
686,608	6,43
686,933	6,38
687,257	6,34
687,581	6,32
687,905	6,32
688,229	6,33
688,553	6,31
688,877	6,29
689,201	6,3
689,524	6,3
689,848	6,3
690,172	6,28
690,496	6,3
690,819	6,32
691,143	6,3
691,466	6,34
691,79	6,29
692,113	6,22
692,436	6,18
692,76	6,21
693,083	6,24
693,406	6,26
693,729	6,26
694,053	6,25
694,376	6,25
694,699	6,25
695,022	6,26
695,344	6,33
695,667	6,42
695,99	6,46
696,313	6,52
696,636	6,59
696,958	6,64
697,281	6,71
697,604	6,76
697,926	6,83
698,249	6,86
698,571	6,93
698,893	6,96
699,216	6,98
699,538	6,98
699,86	6,97
700,182	6,98
700,504	7,01
700,827	7,03
701,149	7,04
701,471	7,09
701,793	7,08
702,114	7,01
702,436	6,9
702,758	6,84
703,08	6,76
703,401	6,68
703,723	6,65
704,045	6,63
704,366	6,56
704,688	6,5
705,009	6,47
705,331	6,46
705,652	6,5
705,973	6,56
706,294	6,55
706,616	6,5
706,937	6,45
707,258	6,39
707,579	6,33
707,9	6,3
708,221	6,29
708,542	6,3
708,863	6,38
709,183	6,46
709,504	6,46
709,825	6,46
710,145	6,51
710,466	6,54
710,787	6,54
711,107	6,57
711,427	6,58
711,748	6,58
712,068	6,63
712,388	6,64
712,709	6,64
713,029	6,68
713,349	6,69
713,669	6,73
713,989	6,81
714,309	6,95
714,629	7,06
714,949	7,12
715,269	7,17
715,589	7,21
715,908	7,22
716,228	7,26
716,548	7,34
716,867	7,34
717,187	7,31
717,506	7,31
717,826	7,33
718,145	7,35
718,465	7,38
718,784	7,31
719,103	7,28
719,422	7,29
719,741	7,33
720,061	7,46
720,38	7,64
720,699	7,79
721,018	7,8
721,336	7,83
721,655	7,92
721,974	8,05
722,293	8,17
722,612	8,27
722,93	8,38
723,249	8,44
723,567	8,6
723,886	8,75
724,204	8,89
724,523	9,03
724,841	9,21
725,159	9,34
725,477	9,48
725,796	9,6
726,114	9,7
726,432	9,8
726,75	9,92
727,068	9,95
727,386	10
727,704	10,13
728,022	10,22
728,339	10,27
728,657	10,29
728,975	10,33
729,292	10,41
729,61	10,52
729,928	10,69
730,245	10,81
730,562	10,98
730,88	11,13
731,197	11,2
731,514	11,25
731,832	11,3
732,149	11,36
732,466	11,47
732,783	11,55
733,1	11,63
733,417	11,75
733,734	11,85
734,051	11,91
734,368	11,89
734,684	12,01
735,001	12,18
735,318	12,3
735,634	12,39
735,951	12,44
736,268	12,46
736,584	12,5
736,9	12,51
737,217	12,49
737,533	12,48
737,849	12,6
738,166	12,73
738,482	12,93
738,798	13,11
739,114	13,21
739,43	13,4
739,746	13,53
740,062	13,55
740,378	13,56
740,693	13,62
741,009	13,88
741,325	13,97
741,641	13,88
741,956	13,84
742,272	13,91
742,587	14,08
742,903	14,26
743,218	14,28
743,533	14,41
743,849	14,51
744,164	14,54
744,479	14,59
744,794	14,78
745,109	14,92
745,424	15,04
745,739	15,13
746,054	15,08
746,369	15,06
746,684	15,1
746,999	15,23
747,313	15,27
747,628	15,25
747,943	15,27
748,257	15,32
748,572	15,52
748,886	15,63
749,201	15,69
749,515	15,68
749,829	15,81
750,144	15,85
750,458	15,81
750,772	15,88
751,086	15,9
751,4	15,78
751,714	15,63
752,028	15,55
752,342	15,49
752,656	15,52
752,97	15,64
753,284	15,75
753,597	15,92
753,911	16,05
754,225	16,03
754,538	16,13
754,852	16,31
755,165	16,41
755,478	16,45
755,792	16,49
756,105	16,71
756,418	16,76
756,731	16,77
757,045	16,89
757,358	16,99
757,671	17,05
757,984	17,17
758,297	17,28
758,609	17,41
758,922	17,51
759,235	17,49
759,548	17,43
759,86	17,29
760,173	16,96
760,486	16,74
760,798	16,57
761,111	16,33
761,423	16,12
761,735	16,02
762,048	16,01
762,36	16,01
762,672	15,93
762,984	15,93
763,296	16
763,608	16,1
763,92	16,18
764,232	16,22
764,544	16,26
764,856	16,29
765,168	16,33
765,48	16,46
765,791	16,6
766,103	16,76
766,414	16,99
766,726	17,33
767,037	17,65
767,349	18,12
767,66	18,54
767,972	18,97
768,283	19,36
768,594	19,65
768,905	19,86
769,216	20,13
769,527	20,46
769,838	20,77
770,149	20,92
770,46	21,09
770,771	21,39
771,082	21,64
771,393	22,08
771,703	22,4
772,014	22,58
772,324	22,82
772,635	22,88
772,945	23,01
773,256	23,14
773,566	23,42
773,877	23,49
774,187	23,63
774,497	23,83
774,807	24,02
775,117	24,28
775,427	24,54
775,737	24,67
776,047	24,63
776,357	24,65
776,667	24,73
776,977	25
777,287	25,23
777,596	25,23
777,906	25,14
778,216	25,22
778,525	25,38
778,835	25,52
779,144	25,4
779,453	25,33
779,763	25,38
780,072	25,42
780,381	25,72
780,69	25,99
781	26,23
781,309	26,29
781,618	26,22
781,927	26,32
782,235	26,61
782,544	26,96
782,853	27,32
783,162	27,69
783,471	27,6
783,779	27,57
784,088	27,62
784,396	27,7
784,705	27,77
785,013	27,72
785,322	27,55
785,63	27,81
785,938	27,65
786,246	27,38
786,554	27,18
786,863	27,05
787,171	26,92
787,479	26,82
787,787	26,75
788,094	26,76
788,402	26,62
788,71	26,61
789,018	26,55
789,326	26,35
789,633	26,15
789,941	26,21
790,248	26,14
790,556	26,32
790,863	26,36
791,171	26,19
791,478	26,15
791,785	26,3
792,092	26,45
792,399	26,93
792,707	27,34
793,014	27,59
793,321	27,54
793,628	27,71
793,934	27,87
794,241	27,98
794,548	28,1
794,855	28,29
795,161	28,05
795,468	27,87
795,775	27,86
796,081	27,8
796,388	27,82
796,694	27,82
797	27,6
797,307	27,45
797,613	27,5
797,919	27,62
798,225	27,81
798,531	27,83
798,837	27,71
799,143	27,68
799,449	27,64
799,755	27,97
800,061	28,05
800,367	28,1
800,672	28,21
800,978	28,46
801,284	28,5
801,589	28,6
801,895	28,81
802,2	28,99
802,506	29,41
802,811	29,35
803,116	29,49
803,421	29,76
803,727	29,98
804,032	30,12
804,337	30,24
804,642	30,07
804,947	30,03
805,252	30,03
805,556	30,25
805,861	30,48
806,166	30,39
806,471	30,59
806,775	30,76
807,08	30,67
807,384	30,33
807,689	30,25
807,993	30,44
808,298	30,75
808,602	30,94
808,906	30,88
809,211	30,98
809,515	31,17
809,819	31,4
810,123	31,73
810,427	32,03
810,731	32,09
811,035	32,46
811,338	32,73
811,642	33,17
811,946	33,07
812,25	33,13
812,553	33,21
812,857	33,01
813,16	32,79
813,464	32,81
813,767	33,19
814,07	33,49
814,374	33,39
814,677	33,19
814,98	32,94
815,283	32,78
815,586	32,94
815,889	32,78
816,192	32,5
816,495	32,22
816,798	31,71
817,101	31,25
817,404	30,77
817,706	30,47
818,009	29,82
818,312	29,07
818,614	27,9
818,917	26,22
819,219	24,21
819,521	22,22
819,824	20,59
820,126	19,24
820,428	18,36
820,73	17,86
821,032	17,38
821,334	17,01
821,636	16,77
821,938	16,61
822,24	16,48
822,542	16,37
822,844	16,32
823,145	16,28
823,447	16,2
823,749	16,12
824,05	15,98
824,352	15,89
824,653	15,85
824,955	15,81
825,256	15,86
825,557	16,02
825,858	16,29
826,16	16,65
826,461	17,1
826,762	17,49
827,063	17,88
827,364	18,36
827,665	18,91
827,965	19,45
828,266	19,86
828,567	20,23
828,868	20,55
829,168	20,82
829,469	21,08
829,769	21,44
830,07	21,8
830,37	22,26
830,67	22,67
830,971	23,07
831,271	23,45
831,571	23,64
831,871	23,87
832,171	24,06
832,471	24,31
832,771	24,5
833,071	24,55
833,371	24,53
833,671	24,5
833,971	24,45
834,27	24,33
834,57	24,51
834,869	24,82
835,169	25,01
835,468	25,17
835,768	25,32
836,067	25,47
836,367	25,84
836,666	26,22
836,965	26,74
837,264	27,41
837,563	28,28
837,862	29,42
838,161	30,27
838,46	31,33
838,759	32,15
839,058	32,9
839,356	34,05
839,655	34,92
839,954	35,79
840,252	36,37
840,551	36,9
840,849	37,35
841,148	37,62
841,446	38,05
841,744	38,27
842,043	38,31
842,341	38,27
842,639	37,93
842,937	38
843,235	38,14
843,533	38,25
843,831	38,8
844,129	39,81
844,427	41,24
844,724	42,89
845,022	44,49
845,32	46,2
845,617	47,18
845,915	48,24
846,212	49,1
846,51	50,08
846,807	51,01
847,104	51,32
847,402	51,19
847,699	51,69
847,996	51,94
848,293	52,64
848,59	53,73
848,887	54,3
849,184	54,97
849,481	55,72
849,778	56,45
850,074	56,98
850,371	57,06
850,668	56,73
850,964	55,37
851,261	54,13
851,557	53,59
851,854	53,9
852,15	53,86
852,446	54,38
852,743	55,05
853,039	55,87
853,335	56,25
853,631	57,03
853,927	57,31
854,223	57,52
854,519	58,04
854,815	57,96
855,111	58,21
855,406	58,21
855,702	57,91
855,998	57,96
856,293	58,13
856,589	57,99
856,884	57,74
857,18	58,1
857,475	58,8
857,77	58,49
858,066	58,41
858,361	58,99
858,656	58,8
858,951	58,44
859,246	58,11
859,541	58
859,836	57,2
860,131	56,97
860,426	57,22
860,72	56,92
861,015	57,32
861,31	58,12
861,604	58,53
861,899	59,08
862,193	59,65
862,487	59,4
862,782	59,27
863,076	59,54
863,37	59,84
863,664	60,04
863,959	60,17
864,253	59,77
864,547	59,46
864,841	59,81
865,135	59,85
865,428	59,57
865,722	59,57
866,016	60,4
866,31	60,52
866,603	60,14
866,897	60,61
867,19	60,49
867,484	59,89
867,777	59,28
868,07	59,27
868,364	58,9
868,657	59,18
868,95	59,51
869,243	59,09
869,536	59,09
869,829	59,01
870,122	58,83
870,415	58,46
870,708	58,08
871	57,53
871,293	57,36
871,586	57,21
871,878	57,33
872,171	56,85
872,463	56,76
872,756	56,71
873,048	55,91
873,341	55,65
873,633	55,48
873,925	55,76
874,217	55,42
874,509	54,97
874,801	54,46
875,093	54,19
875,385	54,85
875,677	54,13
875,969	53,78
