Data from zc74019_1_Reflection_00001.txt Node
Date: Thu Mar 12 14:40:25 ART 2020
User: Ana
Spectrometer: USB2E3644
Trigger mode: 4
Integration Time (sec): 5,000000E-2
Scans to average: 10
Electric dark correction enabled: true
Nonlinearity correction enabled: false
Boxcar width: 10
XAxis mode: Wavelengths
Number of Pixels in Spectrum: 2048
>>>>>Begin Spectral Data<<<<<
178,315	81,17
178,696	74,32
179,076	55,8
179,457	38,33
179,838	30,49
180,218	19,05
180,599	-30
180,979	65,52
181,36	130
181,74	142,86
182,121	151,92
182,501	136,79
182,881	137,67
183,262	127,67
183,642	126,89
184,022	125,47
184,402	129,26
184,783	128,32
185,163	120,39
185,543	117,28
185,923	115,02
186,303	116,55
186,683	118,58
187,063	119,02
187,443	117,6
187,823	121,98
188,203	128,36
188,583	133,83
188,963	135,34
189,343	136,64
189,723	136,99
190,102	136,85
190,482	134,28
190,862	134,95
191,242	138,05
191,621	137,42
192,001	135,68
192,38	137,02
192,76	136,39
193,14	135,32
193,519	135,44
193,898	136,99
194,278	136,54
194,657	134,28
195,037	131,75
195,416	129,6
195,795	129,07
196,175	128,84
196,554	129,04
196,933	129,92
197,312	129,65
197,692	129,93
198,071	128,56
198,45	128,56
198,829	129,11
199,208	129,42
199,587	130,61
199,966	130,95
200,345	129,7
200,724	130,25
201,103	131,82
201,482	132,39
201,86	130,79
202,239	129,68
202,618	129,23
202,997	128,51
203,375	128,05
203,754	128,36
204,133	129,21
204,511	127,55
204,89	126,82
205,269	127
205,647	126,05
206,026	128,2
206,404	131,06
206,782	130,63
207,161	129,87
207,539	129,54
207,918	128,97
208,296	127,12
208,674	126,26
209,052	127,24
209,431	129
209,809	132,32
210,187	134,76
210,565	136,2
210,943	137,56
211,321	138,01
211,699	137,22
212,077	135,11
212,455	134,12
212,833	134,04
213,211	131,1
213,589	129,93
213,967	127,31
214,345	123,01
214,722	119,37
215,1	117,95
215,478	115,63
215,855	114,62
216,233	115,22
216,611	113,48
216,988	110,02
217,366	107,11
217,743	104,77
218,121	102,81
218,498	101,61
218,876	99,92
219,253	99,77
219,631	99,14
220,008	100,08
220,385	102,36
220,762	101,89
221,14	103,76
221,517	104,02
221,894	103,16
222,271	103,69
222,648	106,29
223,025	107,11
223,402	107,42
223,78	108,17
224,157	109,88
224,533	113,53
224,91	120,68
225,287	127,86
225,664	134,17
226,041	139,73
226,418	144,86
226,795	151,88
227,171	161,98
227,548	166,79
227,925	166,46
228,301	167,44
228,678	170,22
229,055	171,62
229,431	177,41
229,808	184,86
230,184	188,02
230,561	194,77
230,937	205,23
231,313	219,03
231,69	226,18
232,066	229,68
232,442	223,49
232,819	215,45
233,195	209,53
233,571	209,39
233,947	207,55
234,323	206,85
234,699	206,93
235,075	207,16
235,451	215,01
235,827	224,49
236,203	237,7
236,579	252,54
236,955	273,55
237,331	298,85
237,707	346,43
238,083	432,33
238,459	572,26
238,834	1018,82
239,21	6276,67
239,586	-1430
239,961	-808,41
240,337	-571,84
240,713	-492,08
241,088	-453,28
241,464	-419,95
241,839	-381,99
242,215	-324,04
242,59	-258,38
242,965	-181,79
243,341	-127,25
243,716	-93,76
244,091	-77,69
244,467	-70,04
244,842	-64,04
245,217	-59,13
245,592	-56,58
245,967	-56,85
246,343	-56,62
246,718	-56,21
247,093	-57,34
247,468	-58,83
247,843	-58,95
248,218	-56,95
248,593	-52,69
248,967	-48,97
249,342	-47,55
249,717	-46,77
250,092	-46,2
250,467	-46,63
250,841	-49,72
251,216	-55,29
251,591	-63,5
251,965	-70,89
252,34	-76,39
252,714	-83,22
253,089	-87,57
253,463	-89,66
253,838	-87,63
254,212	-84,66
254,587	-81,62
254,961	-74,82
255,335	-65,91
255,71	-56,37
256,084	-46,22
256,458	-39,14
256,832	-34,35
257,206	-31,56
257,581	-29,96
257,955	-28,69
258,329	-27,66
258,703	-26,48
259,077	-25,54
259,451	-24,64
259,825	-24,36
260,199	-24,29
260,572	-23,71
260,946	-23,64
261,32	-23,33
261,694	-22,78
262,068	-22,48
262,441	-22,09
262,815	-21,93
263,189	-21,51
263,562	-21,55
263,936	-23,24
264,309	-25,86
264,683	-28,27
265,056	-28,89
265,43	-28,82
265,803	-28,86
266,176	-28,74
266,55	-28,44
266,923	-28,19
267,296	-27,75
267,67	-26,57
268,043	-25,36
268,416	-24,03
268,789	-22,82
269,162	-21,62
269,535	-20,42
269,908	-19,35
270,281	-18,74
270,654	-18,43
271,027	-18,69
271,4	-19,11
271,773	-19
272,146	-18,56
272,519	-18,28
272,891	-18,37
273,264	-18,76
273,637	-18,95
274,01	-18,64
274,382	-18,89
274,755	-19,04
275,127	-19,32
275,5	-19,69
275,872	-19,72
276,245	-19,89
276,617	-20,19
276,99	-20,46
277,362	-21,15
277,734	-21,63
278,107	-21,77
278,479	-21,77
278,851	-21,52
279,223	-21,12
279,596	-20,83
279,968	-20,82
280,34	-20,69
280,712	-20,24
281,084	-19,32
281,456	-18,34
281,828	-17,72
282,2	-16,47
282,572	-15,33
282,944	-14,45
283,315	-14
283,687	-13,91
284,059	-13,96
284,431	-13,94
284,802	-13,83
285,174	-13,57
285,546	-13,38
285,917	-12,97
286,289	-12,64
286,66	-12,49
287,032	-12,36
287,403	-12,19
287,775	-12,15
288,146	-12,34
288,518	-12,58
288,889	-12,59
289,26	-12,7
289,632	-12,94
290,003	-13,42
290,374	-13,79
290,745	-13,99
291,116	-13,99
291,487	-13,84
291,858	-13,6
292,229	-13,38
292,6	-13,16
292,971	-12,49
293,342	-12,01
293,713	-11,83
294,084	-11,64
294,455	-11,24
294,826	-10,91
295,196	-11
295,567	-11,12
295,938	-10,8
296,308	-10,52
296,679	-10,36
297,05	-10,09
297,42	-9,73
297,791	-9,33
298,161	-9,23
298,532	-9,03
298,902	-8,77
299,272	-8,55
299,643	-8,41
300,013	-8,1
300,383	-7,93
300,754	-8,23
301,124	-8,42
301,494	-8,51
301,864	-8,46
302,234	-8,64
302,604	-8,83
302,974	-8,69
303,344	-8,3
303,714	-8,08
304,084	-7,81
304,454	-7,81
304,824	-7,9
305,194	-8,04
305,563	-8,13
305,933	-7,83
306,303	-7,48
306,673	-7,21
307,042	-7,02
307,412	-6,75
307,781	-6,51
308,151	-6,25
308,521	-5,97
308,89	-5,72
309,259	-5,64
309,629	-5,7
309,998	-5,61
310,368	-5,5
310,737	-5,37
311,106	-5,29
311,475	-5,33
311,845	-5,42
312,214	-5,23
312,583	-5,06
312,952	-5
313,321	-4,9
313,69	-4,83
314,059	-4,9
314,428	-5,03
314,797	-5,13
315,166	-5,32
315,535	-5,54
315,904	-5,84
316,272	-6,02
316,641	-6,23
317,01	-6,26
317,379	-6,19
317,747	-6,12
318,116	-5,93
318,484	-5,78
318,853	-5,83
319,221	-5,86
319,59	-5,99
319,958	-6,07
320,327	-6,11
320,695	-6,04
321,063	-5,92
321,432	-5,86
321,8	-5,65
322,168	-5,56
322,536	-5,5
322,905	-5,2
323,273	-4,93
323,641	-4,59
324,009	-4,35
324,377	-4,11
324,745	-3,85
325,113	-3,57
325,481	-3,31
325,849	-3,23
326,216	-3,21
326,584	-3
326,952	-2,75
327,32	-2,43
327,687	-2,23
328,055	-2,05
328,423	-1,89
328,79	-1,87
329,158	-1,91
329,525	-2,01
329,893	-1,97
330,26	-1,77
330,628	-1,78
330,995	-1,77
331,362	-1,87
331,73	-1,99
332,097	-2,01
332,464	-2,08
332,831	-2,06
333,199	-2,09
333,566	-1,97
333,933	-1,76
334,3	-1,62
334,667	-1,57
335,034	-1,51
335,401	-1,52
335,768	-1,47
336,135	-1,38
336,502	-1,3
336,868	-1,16
337,235	-1,01
337,602	-0,88
337,969	-0,8
338,335	-0,68
338,702	-0,53
339,069	-0,4
339,435	-0,28
339,802	-0,13
340,168	0,04
340,535	0,09
340,901	0,03
341,267	-0,1
341,634	-0,13
342	-0,13
342,366	-0,08
342,733	-0,08
343,099	0,02
343,465	0,1
343,831	0,1
344,197	0,16
344,563	0,18
344,929	0,18
345,295	0,24
345,661	0,28
346,027	0,27
346,393	0,26
346,759	0,27
347,125	0,29
347,491	0,32
347,856	0,32
348,222	0,29
348,588	0,42
348,953	0,62
349,319	0,66
349,684	0,69
350,05	0,71
350,415	0,81
350,781	0,89
351,146	0,92
351,512	1
351,877	1,01
352,242	1,07
352,608	1,13
352,973	1,2
353,338	1,29
353,703	1,44
354,068	1,49
354,433	1,57
354,798	1,64
355,164	1,64
355,528	1,71
355,893	1,8
356,258	1,82
356,623	1,88
356,988	2,03
357,353	2,13
357,718	2,18
358,082	2,2
358,447	2,25
358,812	2,39
359,176	2,48
359,541	2,59
359,905	2,64
360,27	2,69
360,634	2,74
360,999	2,8
361,363	2,84
361,728	2,92
362,092	3
362,456	3,07
362,821	3,19
363,185	3,26
363,549	3,33
363,913	3,4
364,277	3,43
364,641	3,4
365,005	3,45
365,369	3,49
365,733	3,6
366,097	3,66
366,461	3,67
366,825	3,72
367,189	3,72
367,553	3,79
367,916	3,92
368,28	4,04
368,644	4,07
369,007	4,12
369,371	4,24
369,734	4,33
370,098	4,39
370,461	4,41
370,825	4,44
371,188	4,52
371,552	4,58
371,915	4,62
372,278	4,71
372,642	4,8
373,005	4,94
373,368	5,07
373,731	5,16
374,094	5,24
374,457	5,31
374,82	5,45
375,183	5,52
375,546	5,56
375,909	5,6
376,272	5,72
376,635	5,83
376,998	5,87
377,361	5,94
377,723	6,04
378,086	6,15
378,449	6,24
378,811	6,29
379,174	6,36
379,537	6,43
379,899	6,47
380,262	6,54
380,624	6,57
380,987	6,6
381,349	6,65
381,711	6,7
382,074	6,77
382,436	6,83
382,798	6,94
383,16	6,97
383,522	6,96
383,884	6,93
384,247	6,96
384,609	7,02
384,971	7,05
385,333	7,06
385,695	7,07
386,056	7,1
386,418	7,11
386,78	7,11
387,142	7,13
387,504	7,19
387,865	7,25
388,227	7,26
388,589	7,3
388,95	7,33
389,312	7,35
389,673	7,38
390,035	7,36
390,396	7,33
390,758	7,38
391,119	7,43
391,48	7,5
391,842	7,49
392,203	7,48
392,564	7,51
392,925	7,57
393,286	7,57
393,648	7,61
394,009	7,67
394,37	7,72
394,731	7,77
395,092	7,79
395,452	7,78
395,813	7,82
396,174	7,84
396,535	7,82
396,896	7,85
397,257	7,89
397,617	7,95
397,978	7,99
398,338	8,01
398,699	8,04
399,06	8,08
399,42	8,1
399,781	8,13
400,141	8,13
400,501	8,13
400,862	8,15
401,222	8,16
401,582	8,15
401,943	8,15
402,303	8,16
402,663	8,16
403,023	8,15
403,383	8,17
403,743	8,19
404,103	8,22
404,463	8,22
404,823	8,24
405,183	8,23
405,543	8,28
405,903	8,31
406,262	8,31
406,622	8,31
406,982	8,33
407,342	8,37
407,701	8,39
408,061	8,42
408,42	8,45
408,78	8,47
409,139	8,51
409,499	8,53
409,858	8,55
410,217	8,58
410,577	8,6
410,936	8,6
411,295	8,58
411,655	8,58
412,014	8,57
412,373	8,55
412,732	8,54
413,091	8,49
413,45	8,44
413,809	8,38
414,168	8,33
414,527	8,29
414,886	8,26
415,245	8,25
415,603	8,2
415,962	8,15
416,321	8,11
416,679	8,08
417,038	8,02
417,397	7,98
417,755	7,95
418,114	7,93
418,472	7,9
418,831	7,89
419,189	7,88
419,547	7,87
419,906	7,85
420,264	7,83
420,622	7,83
420,981	7,82
421,339	7,83
421,697	7,83
422,055	7,84
422,413	7,85
422,771	7,86
423,129	7,88
423,487	7,9
423,845	7,93
424,203	7,94
424,56	7,98
424,918	8,02
425,276	8,05
425,634	8,09
425,991	8,12
426,349	8,15
426,707	8,19
427,064	8,24
427,422	8,27
427,779	8,33
428,137	8,36
428,494	8,43
428,851	8,46
429,209	8,51
429,566	8,52
429,923	8,53
430,28	8,52
430,637	8,54
430,995	8,52
431,352	8,52
431,709	8,54
432,066	8,55
432,423	8,56
432,78	8,55
433,137	8,54
433,493	8,53
433,85	8,57
434,207	8,55
434,564	8,53
434,92	8,52
435,277	8,51
435,634	8,52
435,99	8,52
436,347	8,52
436,703	8,52
437,06	8,53
437,416	8,54
437,773	8,53
438,129	8,52
438,485	8,55
438,841	8,54
439,198	8,53
439,554	8,51
439,91	8,51
440,266	8,52
440,622	8,53
440,978	8,54
441,334	8,5
441,69	8,49
442,046	8,49
442,402	8,49
442,758	8,49
443,113	8,49
443,469	8,49
443,825	8,5
444,181	8,49
444,536	8,49
444,892	8,49
445,247	8,51
445,603	8,53
445,958	8,54
446,314	8,56
446,669	8,56
447,025	8,58
447,38	8,6
447,735	8,62
448,09	8,64
448,446	8,67
448,801	8,69
449,156	8,73
449,511	8,75
449,866	8,78
450,221	8,8
450,576	8,84
450,931	8,89
451,286	8,92
451,641	8,98
451,995	9,02
452,35	9,07
452,705	9,08
453,06	9,09
453,414	9,09
453,769	9,11
454,123	9,14
454,478	9,13
454,832	9,15
455,187	9,11
455,541	9,1
455,896	9,1
456,25	9,07
456,604	9,04
456,958	9,04
457,313	9,02
457,667	9
458,021	8,99
458,375	8,99
458,729	9
459,083	9
459,437	9,01
459,791	9
460,145	9,01
460,499	9,01
460,852	9,02
461,206	9,02
461,56	9,02
461,914	9,02
462,267	9,02
462,621	9,04
462,974	9,05
463,328	9,06
463,681	9,11
464,035	9,15
464,388	9,17
464,742	9,19
465,095	9,22
465,448	9,25
465,801	9,24
466,155	9,24
466,508	9,25
466,861	9,24
467,214	9,24
467,567	9,23
467,92	9,25
468,273	9,25
468,626	9,26
468,979	9,24
469,332	9,24
469,684	9,24
470,037	9,25
470,39	9,26
470,743	9,28
471,095	9,28
471,448	9,29
471,8	9,3
472,153	9,3
472,505	9,31
472,858	9,33
473,21	9,35
473,562	9,36
473,915	9,36
474,267	9,36
474,619	9,36
474,971	9,36
475,324	9,35
475,676	9,36
476,028	9,35
476,38	9,36
476,732	9,37
477,084	9,37
477,436	9,37
477,787	9,36
478,139	9,35
478,491	9,36
478,843	9,36
479,195	9,36
479,546	9,35
479,898	9,33
480,249	9,31
480,601	9,29
480,952	9,27
481,304	9,24
481,655	9,22
482,007	9,2
482,358	9,18
482,709	9,17
483,061	9,15
483,412	9,16
483,763	9,16
484,114	9,16
484,465	9,17
484,816	9,16
485,167	9,16
485,518	9,15
485,869	9,15
486,22	9,13
486,571	9,12
486,922	9,13
487,272	9,13
487,623	9,13
487,974	9,13
488,324	9,14
488,675	9,16
489,025	9,17
489,376	9,18
489,726	9,2
490,077	9,21
490,427	9,22
490,778	9,23
491,128	9,25
491,478	9,24
491,828	9,25
492,179	9,28
492,529	9,3
492,879	9,31
493,229	9,33
493,579	9,38
493,929	9,4
494,279	9,41
494,629	9,42
494,979	9,43
495,328	9,45
495,678	9,47
496,028	9,5
496,378	9,52
496,727	9,57
497,077	9,6
497,426	9,62
497,776	9,62
498,125	9,62
498,475	9,63
498,824	9,66
499,174	9,66
499,523	9,65
499,872	9,67
500,221	9,7
500,571	9,7
500,92	9,7
501,269	9,72
501,618	9,73
501,967	9,75
502,316	9,75
502,665	9,76
503,014	9,77
503,363	9,77
503,711	9,76
504,06	9,75
504,409	9,75
504,758	9,76
505,106	9,79
505,455	9,8
505,803	9,78
506,152	9,79
506,5	9,8
506,849	9,8
507,197	9,8
507,546	9,79
507,894	9,81
508,242	9,83
508,59	9,81
508,939	9,81
509,287	9,83
509,635	9,83
509,983	9,83
510,331	9,84
510,679	9,86
511,027	9,87
511,375	9,89
511,723	9,91
512,07	9,92
512,418	9,94
512,766	9,96
513,114	10,01
513,461	10,01
513,809	10,02
514,156	10,04
514,504	10,04
514,851	10,05
515,199	10,02
515,546	10,03
515,893	10,03
516,241	10,02
516,588	10,01
516,935	10,03
517,282	10,04
517,63	10,04
517,977	10,04
518,324	10,06
518,671	10,05
519,018	10,06
519,365	10,07
519,711	10,05
520,058	10,06
520,405	10,06
520,752	10,07
521,099	10,07
521,445	10,08
521,792	10,09
522,138	10,09
522,485	10,1
522,832	10,1
523,178	10,11
523,524	10,12
523,871	10,12
524,217	10,11
524,563	10,09
524,91	10,09
525,256	10,07
525,602	10,06
525,948	10,06
526,294	10,03
526,64	10,02
526,986	10
527,332	9,97
527,678	9,95
528,024	9,96
528,37	9,96
528,716	9,95
529,061	9,94
529,407	9,95
529,753	9,96
530,098	9,96
530,444	9,98
530,789	9,98
531,135	9,98
531,48	9,97
531,826	9,98
532,171	9,98
532,516	10
532,862	10
533,207	10
533,552	10,02
533,897	10,04
534,242	10,07
534,587	10,1
534,932	10,12
535,277	10,11
535,622	10,13
535,967	10,14
536,312	10,15
536,657	10,16
537,001	10,16
537,346	10,17
537,691	10,17
538,035	10,19
538,38	10,21
538,724	10,22
539,069	10,22
539,413	10,23
539,758	10,21
540,102	10,21
540,446	10,19
540,791	10,18
541,135	10,18
541,479	10,18
541,823	10,16
542,167	10,16
542,512	10,18
542,856	10,16
543,2	10,16
543,543	10,17
543,887	10,16
544,231	10,16
544,575	10,16
544,919	10,15
545,262	10,14
545,606	10,15
545,95	10,16
546,293	10,16
546,637	10,16
546,98	10,2
547,324	10,22
547,667	10,29
548,011	10,32
548,354	10,32
548,697	10,34
549,04	10,38
549,384	10,41
549,727	10,39
550,07	10,42
550,413	10,43
550,756	10,44
551,099	10,45
551,442	10,45
551,785	10,46
552,128	10,48
552,47	10,47
552,813	10,46
553,156	10,45
553,499	10,44
553,841	10,44
554,184	10,41
554,526	10,38
554,869	10,31
555,211	10,3
555,554	10,3
555,896	10,26
556,238	10,23
556,581	10,19
556,923	10,16
557,265	10,13
557,607	10,1
557,949	10,06
558,291	10,07
558,633	10,04
558,975	10,02
559,317	10,01
559,659	10,02
560,001	10
560,343	9,96
560,685	9,95
561,026	9,94
561,368	9,95
561,71	9,96
562,051	9,97
562,393	9,98
562,734	9,97
563,076	9,97
563,417	9,95
563,759	9,99
564,1	9,99
564,441	10
564,782	9,98
565,124	9,97
565,465	9,95
565,806	9,96
566,147	9,95
566,488	9,93
566,829	9,93
567,17	9,94
567,511	9,97
567,851	9,97
568,192	9,96
568,533	9,93
568,874	9,93
569,214	9,92
569,555	9,88
569,895	9,86
570,236	9,83
570,576	9,82
570,917	9,8
571,257	9,77
571,598	9,75
571,938	9,75
572,278	9,77
572,618	9,78
572,959	9,77
573,299	9,77
573,639	9,75
573,979	9,74
574,319	9,71
574,659	9,67
574,999	9,66
575,339	9,66
575,678	9,68
576,018	9,67
576,358	9,65
576,698	9,67
577,037	9,65
577,377	9,67
577,716	9,67
578,056	9,64
578,395	9,64
578,735	9,65
579,074	9,64
579,413	9,6
579,753	9,55
580,092	9,51
580,431	9,49
580,77	9,48
581,109	9,46
581,448	9,44
581,787	9,43
582,126	9,39
582,465	9,39
582,804	9,35
583,143	9,33
583,482	9,32
583,82	9,29
584,159	9,29
584,498	9,27
584,836	9,28
585,175	9,26
585,514	9,26
585,852	9,24
586,19	9,24
586,529	9,26
586,867	9,29
587,205	9,31
587,544	9,33
587,882	9,35
588,22	9,39
588,558	9,41
588,896	9,45
589,234	9,45
589,572	9,43
589,91	9,44
590,248	9,44
590,586	9,44
590,924	9,45
591,262	9,47
591,599	9,48
591,937	9,47
592,275	9,49
592,612	9,52
592,95	9,55
593,287	9,59
593,625	9,59
593,962	9,6
594,299	9,62
594,637	9,64
594,974	9,63
595,311	9,62
595,648	9,62
595,985	9,6
596,322	9,62
596,659	9,63
596,996	9,63
597,333	9,64
597,67	9,64
598,007	9,64
598,344	9,64
598,681	9,64
599,017	9,65
599,354	9,65
599,691	9,63
600,027	9,64
600,364	9,66
600,7	9,68
601,037	9,7
601,373	9,71
601,71	9,73
602,046	9,76
602,382	9,77
602,718	9,77
603,054	9,79
603,391	9,8
603,727	9,79
604,063	9,82
604,399	9,82
604,735	9,85
605,071	9,87
605,406	9,9
605,742	9,92
606,078	9,95
606,414	9,98
606,749	10
607,085	10
607,421	10
607,756	9,99
608,092	9,98
608,427	9,97
608,762	9,93
609,098	9,9
609,433	9,87
609,768	9,87
610,104	9,86
610,439	9,83
610,774	9,86
611,109	9,84
611,444	9,82
611,779	9,8
612,114	9,79
612,449	9,77
612,784	9,72
613,118	9,67
613,453	9,63
613,788	9,6
614,123	9,58
614,457	9,57
614,792	9,53
615,126	9,52
615,461	9,51
615,795	9,51
616,13	9,5
616,464	9,53
616,798	9,54
617,132	9,55
617,467	9,57
617,801	9,56
618,135	9,58
618,469	9,6
618,803	9,62
619,137	9,62
619,471	9,61
619,805	9,64
620,139	9,65
620,472	9,67
620,806	9,64
621,14	9,63
621,473	9,6
621,807	9,63
622,141	9,63
622,474	9,63
622,808	9,63
623,141	9,66
623,474	9,66
623,808	9,7
624,141	9,73
624,474	9,78
624,807	9,78
625,141	9,78
625,474	9,78
625,807	9,78
626,14	9,77
626,473	9,77
626,806	9,78
627,138	9,78
627,471	9,77
627,804	9,8
628,137	9,82
628,469	9,82
628,802	9,81
629,135	9,81
629,467	9,83
629,8	9,84
630,132	9,8
630,465	9,8
630,797	9,78
631,129	9,76
631,461	9,71
631,794	9,74
632,126	9,73
632,458	9,74
632,79	9,76
633,122	9,78
633,454	9,79
633,786	9,77
634,118	9,77
634,45	9,79
634,781	9,79
635,113	9,78
635,445	9,79
635,777	9,82
636,108	9,82
636,44	9,82
636,771	9,83
637,103	9,83
637,434	9,83
637,765	9,81
638,097	9,78
638,428	9,78
638,759	9,76
639,09	9,76
639,422	9,75
639,753	9,71
640,084	9,68
640,415	9,66
640,746	9,67
641,077	9,69
641,407	9,66
641,738	9,64
642,069	9,62
642,4	9,65
642,73	9,64
643,061	9,63
643,392	9,61
643,722	9,6
644,053	9,62
644,383	9,62
644,713	9,65
645,044	9,67
645,374	9,68
645,704	9,66
646,034	9,69
646,365	9,7
646,695	9,72
647,025	9,74
647,355	9,75
647,685	9,74
648,015	9,75
648,344	9,77
648,674	9,8
649,004	9,8
649,334	9,8
649,663	9,83
649,993	9,83
650,323	9,9
650,652	9,91
650,982	9,92
651,311	9,92
651,64	9,89
651,97	9,89
652,299	9,94
652,628	9,95
652,958	9,94
653,287	9,98
653,616	10
653,945	10,01
654,274	10,03
654,603	10,03
654,932	10,02
655,261	10,01
655,589	10,03
655,918	10,08
656,247	10,12
656,576	10,14
656,904	10,17
657,233	10,16
657,561	10,17
657,89	10,22
658,218	10,26
658,547	10,31
658,875	10,34
659,203	10,33
659,532	10,33
659,86	10,34
660,188	10,34
660,516	10,33
660,844	10,32
661,172	10,33
661,5	10,39
661,828	10,43
662,156	10,46
662,484	10,47
662,811	10,48
663,139	10,46
663,467	10,43
663,794	10,44
664,122	10,42
664,45	10,42
664,777	10,41
665,104	10,43
665,432	10,42
665,759	10,39
666,086	10,4
666,414	10,41
666,741	10,39
667,068	10,42
667,395	10,45
667,722	10,45
668,049	10,45
668,376	10,42
668,703	10,43
669,03	10,48
669,357	10,49
669,683	10,46
670,01	10,42
670,337	10,42
670,663	10,41
670,99	10,4
671,317	10,4
671,643	10,38
671,969	10,33
672,296	10,33
672,622	10,34
672,948	10,36
673,275	10,38
673,601	10,37
673,927	10,33
674,253	10,32
674,579	10,36
674,905	10,34
675,231	10,32
675,557	10,3
675,883	10,28
676,209	10,26
676,534	10,29
676,86	10,37
677,186	10,38
677,511	10,42
677,837	10,45
678,162	10,48
678,488	10,52
678,813	10,55
679,139	10,6
679,464	10,63
679,789	10,58
680,114	10,54
680,44	10,57
680,765	10,6
681,09	10,58
681,415	10,52
681,74	10,52
682,065	10,52
682,39	10,53
682,714	10,49
683,039	10,46
683,364	10,46
683,689	10,42
684,013	10,39
684,338	10,36
684,662	10,35
684,987	10,35
685,311	10,3
685,636	10,25
685,96	10,18
686,284	10,17
686,608	10,18
686,933	10,19
687,257	10,18
687,581	10,19
687,905	10,22
688,229	10,3
688,553	10,32
688,877	10,34
689,201	10,38
689,524	10,43
689,848	10,5
690,172	10,51
690,496	10,49
690,819	10,49
691,143	10,49
691,466	10,52
691,79	10,49
692,113	10,5
692,436	10,52
692,76	10,56
693,083	10,59
693,406	10,59
693,729	10,6
694,053	10,6
694,376	10,56
694,699	10,52
695,022	10,55
695,344	10,65
695,667	10,77
695,99	10,82
696,313	10,84
696,636	10,87
696,958	10,92
697,281	10,98
697,604	11,04
697,926	11,06
698,249	11,07
698,571	11,12
698,893	11,11
699,216	11,15
699,538	11,17
699,86	11,17
700,182	11,22
700,504	11,25
700,827	11,27
701,149	11,28
701,471	11,29
701,793	11,21
702,114	11,13
702,436	10,99
702,758	10,88
703,08	10,81
703,401	10,72
703,723	10,65
704,045	10,6
704,366	10,53
704,688	10,49
705,009	10,45
705,331	10,41
705,652	10,45
705,973	10,41
706,294	10,37
706,616	10,29
706,937	10,26
707,258	10,23
707,579	10,23
707,9	10,3
708,221	10,45
708,542	10,55
708,863	10,6
709,183	10,66
709,504	10,7
709,825	10,74
710,145	10,75
710,466	10,81
710,787	10,87
711,107	10,95
711,427	10,97
711,748	10,98
712,068	11,04
712,388	11,13
712,709	11,23
713,029	11,3
713,349	11,35
713,669	11,37
713,989	11,41
714,309	11,47
714,629	11,48
714,949	11,46
715,269	11,47
715,589	11,51
715,908	11,48
716,228	11,5
716,548	11,56
716,867	11,6
717,187	11,58
717,506	11,63
717,826	11,63
718,145	11,68
718,465	11,73
718,784	11,71
719,103	11,73
719,422	11,67
719,741	11,65
720,061	11,72
720,38	11,81
720,699	11,93
721,018	12,02
721,336	12,1
721,655	12,15
721,974	12,24
722,293	12,37
722,612	12,59
722,93	12,76
723,249	12,84
723,567	12,97
723,886	13,12
724,204	13,19
724,523	13,34
724,841	13,47
725,159	13,63
725,477	13,77
725,796	13,78
726,114	13,94
726,432	14,1
726,75	14,27
727,068	14,41
727,386	14,5
727,704	14,55
728,022	14,62
728,339	14,7
728,657	14,82
728,975	14,82
729,292	14,79
729,61	14,77
729,928	14,79
730,245	14,87
730,562	14,98
730,88	15,07
731,197	15,13
731,514	15,19
731,832	15,18
732,149	15,24
732,466	15,35
732,783	15,42
733,1	15,48
733,417	15,62
733,734	15,74
734,051	15,89
734,368	15,98
734,684	16,07
735,001	16,2
735,318	16,25
735,634	16,3
735,951	16,44
736,268	16,56
736,584	16,7
736,9	16,81
737,217	16,88
737,533	16,9
737,849	17,05
738,166	17,19
738,482	17,43
738,798	17,61
739,114	17,75
739,43	17,84
739,746	17,9
740,062	17,88
740,378	17,87
740,693	17,83
741,009	17,91
741,325	18,04
741,641	18,05
741,956	18,11
742,272	18,28
742,587	18,37
742,903	18,49
743,218	18,44
743,533	18,45
743,849	18,47
744,164	18,49
744,479	18,56
744,794	18,64
745,109	18,64
745,424	18,72
745,739	18,73
746,054	18,74
746,369	18,75
746,684	18,91
746,999	18,97
747,313	19,08
747,628	19,1
747,943	19,11
748,257	19,16
748,572	19,33
748,886	19,43
749,201	19,53
749,515	19,58
749,829	19,75
750,144	19,91
750,458	19,93
750,772	20,03
751,086	20,04
751,4	20,03
751,714	19,99
752,028	19,9
752,342	20
752,656	20,14
752,97	20,34
753,284	20,37
753,597	20,46
753,911	20,47
754,225	20,55
754,538	20,61
754,852	20,67
755,165	20,52
755,478	20,57
755,792	20,66
756,105	20,77
756,418	20,87
756,731	20,96
757,045	21,11
757,358	21,22
757,671	21,23
757,984	21,32
758,297	21,28
758,609	21,47
758,922	21,55
759,235	21,55
759,548	21,5
759,86	21,4
760,173	21,23
760,486	21,1
760,798	20,89
761,111	20,76
761,423	20,64
761,735	20,61
762,048	20,46
762,36	20,46
762,672	20,49
762,984	20,48
763,296	20,46
763,608	20,54
763,92	20,64
764,232	20,76
764,544	20,86
764,856	20,97
765,168	21,03
765,48	21,12
765,791	21,23
766,103	21,38
766,414	21,54
766,726	21,83
767,037	22,1
767,349	22,52
767,66	22,92
767,972	23,35
768,283	23,81
768,594	24,22
768,905	24,52
769,216	24,71
769,527	25,12
769,838	25,3
770,149	25,42
770,46	25,48
770,771	25,63
771,082	25,72
771,393	26,17
771,703	26,45
772,014	26,62
772,324	26,76
772,635	26,85
772,945	27,03
773,256	27,13
773,566	27,45
773,877	27,67
774,187	27,76
774,497	27,92
774,807	28,04
775,117	28,24
775,427	28,33
775,737	28,52
776,047	28,6
776,357	29
776,667	29,07
776,977	29,35
777,287	29,55
777,596	29,67
777,906	29,51
778,216	29,51
778,525	29,58
778,835	29,75
779,144	30,19
779,453	30,4
779,763	30,49
780,072	30,48
780,381	30,43
780,69	30,47
781	30,5
781,309	30,63
781,618	30,71
781,927	30,78
782,235	30,89
782,544	30,98
782,853	31,11
783,162	31,31
783,471	31,31
783,779	31,39
784,088	31,54
784,396	31,65
784,705	31,68
785,013	31,57
785,322	31,51
785,63	31,03
785,938	30,62
786,246	30,48
786,554	30,42
786,863	30,63
787,171	30,65
787,479	30,67
787,787	30,59
788,094	30,64
788,402	30,53
788,71	30,52
789,018	30,39
789,326	30,18
789,633	30,12
789,941	30,19
790,248	30,1
790,556	30,07
790,863	30,22
791,171	30,27
791,478	30,34
791,785	30,44
792,092	30,51
792,399	30,84
792,707	31,07
793,014	31,24
793,321	31,17
793,628	31,26
793,934	31,49
794,241	31,46
794,548	31,38
794,855	31,33
795,161	31,25
795,468	31,14
795,775	31,09
796,081	31,17
796,388	31,25
796,694	31,26
797	31,26
797,307	31,37
797,613	31,26
797,919	31,21
798,225	31,17
798,531	31,14
798,837	31,14
799,143	30,96
799,449	30,75
799,755	30,89
800,061	30,99
800,367	31,05
800,672	31,37
800,978	31,62
801,284	31,98
801,589	32,1
801,895	32,38
802,2	32,57
802,506	32,47
802,811	32,15
803,116	32,14
803,421	31,93
803,727	31,53
804,032	31,45
804,337	31,5
804,642	31,61
804,947	31,78
805,252	31,74
805,556	32,1
805,861	32,44
806,166	32,41
806,471	32,51
806,775	32,61
807,08	32,58
807,384	32,57
807,689	32,62
807,993	32,78
808,298	32,93
808,602	32,93
808,906	33,12
809,211	33,51
809,515	33,7
809,819	34,17
810,123	34,71
810,427	35,2
810,731	35,52
811,035	35,67
811,338	35,7
811,642	35,94
811,946	35,88
812,25	35,96
812,553	36,1
812,857	36,11
813,16	35,93
813,464	35,8
813,767	35,84
814,07	35,81
814,374	35,93
814,677	36,05
814,98	35,87
815,283	35,76
815,586	35,58
815,889	35,43
816,192	35,29
816,495	34,91
816,798	34,36
817,101	33,92
817,404	33,48
817,706	33,14
818,009	32,53
818,312	31,93
818,614	31,05
818,917	29,53
819,219	27,63
819,521	25,87
819,824	24,34
820,126	23,14
820,428	22,29
820,73	21,67
821,032	21,19
821,334	20,88
821,636	20,63
821,938	20,52
822,24	20,44
822,542	20,39
822,844	20,4
823,145	20,39
823,447	20,34
823,749	20,27
824,05	20,19
824,352	20,11
824,653	20,1
824,955	20,03
825,256	20,06
825,557	20,21
825,858	20,45
826,16	20,78
826,461	21,23
826,762	21,68
827,063	22,13
827,364	22,55
827,665	23,17
827,965	23,77
828,266	24,17
828,567	24,46
828,868	24,7
829,168	24,91
829,469	25,01
829,769	25,22
830,07	25,54
830,37	25,87
830,67	26,3
830,971	26,48
831,271	26,83
831,571	27,16
831,871	27,43
832,171	27,52
832,471	27,71
832,771	27,64
833,071	27,64
833,371	27,72
833,671	27,8
833,971	27,76
834,27	27,75
834,57	27,99
834,869	28,48
835,169	28,74
835,468	28,81
835,768	29,11
836,067	29,27
836,367	29,53
836,666	29,82
836,965	30,26
837,264	30,78
837,563	31,34
837,862	32,18
838,161	32,86
838,46	33,75
838,759	34,46
839,058	35,15
839,356	35,5
839,655	35,87
839,954	36,5
840,252	36,72
840,551	36,99
840,849	37,11
841,148	37,1
841,446	37,13
841,744	37,4
842,043	37,35
842,341	37,73
842,639	38,25
842,937	38,7
843,235	39,22
843,533	40,04
843,831	41,35
844,129	42,32
844,427	43,37
844,724	44,73
845,022	46,09
845,32	47,55
845,617	48,75
845,915	49,89
846,212	50,72
846,51	52
846,807	53,02
847,104	53,93
847,402	54,25
847,699	54,64
847,996	55,22
848,293	55,95
848,59	56,99
848,887	57,37
849,184	57,26
849,481	57,36
849,778	57,42
850,074	57,35
850,371	57,65
850,668	58
850,964	57,67
851,261	56,86
851,557	56,68
851,854	57,64
852,15	58,14
852,446	58,87
852,743	59,3
853,039	59,88
853,335	59,65
853,631	60,06
853,927	60,51
854,223	60,19
854,519	60,46
854,815	60,07
855,111	59,95
855,406	60,61
855,702	61,01
855,998	61,34
856,293	61,32
856,589	61,29
856,884	60,24
857,18	59,8
857,475	60,12
857,77	59,62
858,066	59,45
858,361	59,22
858,656	58,65
858,951	57,42
859,246	56,39
859,541	56,28
859,836	55,98
860,131	55,98
860,426	56,43
860,72	56,62
861,015	56,81
861,31	56,82
861,604	57,02
861,899	56,7
862,193	56,06
862,487	55,84
862,782	55,27
863,076	55,68
863,37	55,96
863,664	56,7
863,959	57,21
864,253	56,75
864,547	56,5
864,841	56,76
865,135	57,37
865,428	57,71
865,722	58,01
866,016	57,94
866,31	57,5
866,603	56,81
866,897	55,87
867,19	54,86
867,484	54,17
867,777	53,2
868,07	52,88
868,364	52,77
868,657	52,37
868,95	52,53
869,243	52,85
869,536	52,9
869,829	52,38
870,122	52,21
870,415	52,08
870,708	52,38
871	52,29
871,293	52,01
871,586	51,27
871,878	50,14
872,171	49,92
872,463	49,52
872,756	49,52
873,048	49,52
873,341	49,7
873,633	49,63
873,925	50,1
874,217	50,07
874,509	50,08
874,801	50,2
875,093	49,83
875,385	49,34
875,677	48,68
875,969	47,84
