Data from zc74010_5_Reflection_00002.txt Node
Date: Thu Mar 12 15:02:00 ART 2020
User: Ana
Spectrometer: USB2E3644
Trigger mode: 4
Integration Time (sec): 5,000000E-2
Scans to average: 10
Electric dark correction enabled: true
Nonlinearity correction enabled: false
Boxcar width: 10
XAxis mode: Wavelengths
Number of Pixels in Spectrum: 2048
>>>>>Begin Spectral Data<<<<<
178,315	96,39
178,696	100,78
179,076	101,62
179,457	97,12
179,838	99,52
180,218	148,15
180,599	1061,11
180,979	112,9
181,36	490,28
181,74	212,35
182,121	139,58
182,501	113,05
182,881	108,47
183,262	103,02
183,642	101,09
184,022	102,31
184,402	105,66
184,783	106,84
185,163	103,74
185,543	104,58
185,923	106,53
186,303	109,07
186,683	111,27
187,063	113,31
187,443	115,8
187,823	118,91
188,203	122,83
188,583	125,78
188,963	124,55
189,343	121,45
189,723	122,27
190,102	127,34
190,482	132,54
190,862	134,57
191,242	136,6
191,621	135,76
192,001	135,24
192,38	134,97
192,76	134,08
193,14	134,66
193,519	134,05
193,898	134,15
194,278	134,34
194,657	135,29
195,037	135,47
195,416	131,19
195,795	127,84
196,175	126,19
196,554	124,92
196,933	123,77
197,312	122,68
197,692	120,63
198,071	118,15
198,45	117,17
198,829	117,6
199,208	118,44
199,587	118,97
199,966	118,53
200,345	116,95
200,724	116,79
201,103	117,16
201,482	117,83
201,86	117,61
202,239	115,81
202,618	114,18
202,997	113,3
203,375	114,82
203,754	115,79
204,133	116,65
204,511	116,77
204,89	116,35
205,269	117,19
205,647	118,31
206,026	118,18
206,404	117,69
206,782	116,85
207,161	116,37
207,539	116,45
207,918	117,37
208,296	118,89
208,674	119,53
209,052	120,32
209,431	121,51
209,809	122,94
210,187	123,9
210,565	124,21
210,943	125,16
211,321	125,81
211,699	126,99
212,077	127,08
212,455	126,67
212,833	127,39
213,211	126,86
213,589	126,38
213,967	126,72
214,345	127,14
214,722	128,98
215,1	129,85
215,478	129,69
215,855	129,88
216,233	129,79
216,611	129,8
216,988	129,2
217,366	127,16
217,743	126,21
218,121	127,14
218,498	128,02
218,876	126,65
219,253	123,88
219,631	120,82
220,008	118,75
220,385	118,77
220,762	119,08
221,14	119,08
221,517	119,29
221,894	120,18
222,271	120,51
222,648	119,66
223,025	119,03
223,402	118,51
223,78	117,73
224,157	117,36
224,533	116,89
224,91	117,72
225,287	120,39
225,664	122,71
226,041	123,33
226,418	124,28
226,795	125,42
227,171	127,08
227,548	129,6
227,925	131,22
228,301	132,28
228,678	133,58
229,055	135,55
229,431	137,09
229,808	138,11
230,184	138,17
230,561	139,32
230,937	140,35
231,313	141,91
231,69	143,67
232,066	145,86
232,442	147,5
232,819	147,52
233,195	145,59
233,571	143,66
233,947	143,99
234,323	144,89
234,699	146,5
235,075	149,29
235,451	152,07
235,827	155,61
236,203	157,91
236,579	159,98
236,955	163,96
237,331	172,59
237,707	184,08
238,083	197,58
238,459	212,69
238,834	238,89
239,21	281,93
239,586	339,29
239,961	403,89
240,337	474,17
240,713	536,61
241,088	610,36
241,464	703,9
241,839	833,22
242,215	1109,5
242,59	2603,74
242,965	-1589,79
243,341	-450,47
243,716	-242,77
244,091	-172,78
244,467	-141,43
244,842	-123,44
245,217	-111,38
245,592	-104,58
245,967	-103,12
246,343	-100,98
246,718	-99,66
247,093	-101,84
247,468	-104,27
247,843	-102,89
248,218	-98,34
248,593	-91,63
248,967	-84,27
249,342	-80,91
249,717	-79,1
250,092	-78
250,467	-78,99
250,841	-84,05
251,216	-96,14
251,591	-115,8
251,965	-138,74
252,34	-158,02
252,714	-178,48
253,089	-192,4
253,463	-203,11
253,838	-203,44
254,212	-198,69
254,587	-188,75
254,961	-167,32
255,335	-142,94
255,71	-119,75
256,084	-93,72
256,458	-74,33
256,832	-62,96
257,206	-56,46
257,581	-52,89
257,955	-50,73
258,329	-48,66
258,703	-46,5
259,077	-44,67
259,451	-43,11
259,825	-42,45
260,199	-42,34
260,572	-41,79
260,946	-41,82
261,32	-41,51
261,694	-40,81
262,068	-40,34
262,441	-39,95
262,815	-39,84
263,189	-39,59
263,562	-40,17
263,936	-43,04
264,309	-47,54
264,683	-52,46
265,056	-55,05
265,43	-56,13
265,803	-56,62
266,176	-56,34
266,55	-56,32
266,923	-55,6
267,296	-54,36
267,67	-52,21
268,043	-49,97
268,416	-46,99
268,789	-43,82
269,162	-41,09
269,535	-38,62
269,908	-36,7
270,281	-35,49
270,654	-35,41
271,027	-35,79
271,4	-35,89
271,773	-35,79
272,146	-35,65
272,519	-35,54
272,891	-35,63
273,264	-35,86
273,637	-35,52
274,01	-35,1
274,382	-35,38
274,755	-35,5
275,127	-35,68
275,5	-35,96
275,872	-36,04
276,245	-36,41
276,617	-37,35
276,99	-38,09
277,362	-39,33
277,734	-40,35
278,107	-40,41
278,479	-39,83
278,851	-39,17
279,223	-38,6
279,596	-37,8
279,968	-37,47
280,34	-36,78
280,712	-35,85
281,084	-34,28
281,456	-32,7
281,828	-31,24
282,2	-28,95
282,572	-27,16
282,944	-25,92
283,315	-25,22
283,687	-24,63
284,059	-24,24
284,431	-23,89
284,802	-23,38
285,174	-22,86
285,546	-22,33
285,917	-21,82
286,289	-21,34
286,66	-20,99
287,032	-20,55
287,403	-20,31
287,775	-20,16
288,146	-20,21
288,518	-20,28
288,889	-20,21
289,26	-20,38
289,632	-20,93
290,003	-21,8
290,374	-22,43
290,745	-22,83
291,116	-22,95
291,487	-23,02
291,858	-23,04
292,229	-22,78
292,6	-22,34
292,971	-21,52
293,342	-20,75
293,713	-19,87
294,084	-19,16
294,455	-18,38
294,826	-17,92
295,196	-17,72
295,567	-17,68
295,938	-17,42
296,308	-17,19
296,679	-17,03
297,05	-16,66
297,42	-16,16
297,791	-15,66
298,161	-15,46
298,532	-15,17
298,902	-14,9
299,272	-14,66
299,643	-14,35
300,013	-14,06
300,383	-13,97
300,754	-14,07
301,124	-14,25
301,494	-14,52
301,864	-14,77
302,234	-15,09
302,604	-15,21
302,974	-15,15
303,344	-14,88
303,714	-14,62
304,084	-14,24
304,454	-14,05
304,824	-14
305,194	-13,98
305,563	-13,93
305,933	-13,73
306,303	-13,47
306,673	-13,1
307,042	-12,58
307,412	-12,03
307,781	-11,47
308,151	-11,07
308,521	-10,83
308,89	-10,68
309,259	-10,82
309,629	-10,89
309,998	-10,83
310,368	-10,82
310,737	-10,8
311,106	-10,82
311,475	-10,76
311,845	-10,88
312,214	-10,96
312,583	-10,97
312,952	-11,01
313,321	-10,94
313,69	-10,72
314,059	-10,66
314,428	-10,73
314,797	-11,02
315,166	-11,53
315,535	-12,08
315,904	-12,58
316,272	-12,89
316,641	-13,12
317,01	-13
317,379	-12,94
317,747	-12,92
318,116	-12,72
318,484	-12,61
318,853	-12,54
319,221	-12,64
319,59	-12,78
319,958	-12,71
320,327	-12,6
320,695	-12,45
321,063	-12,25
321,432	-12,06
321,8	-11,73
322,168	-11,43
322,536	-11,28
322,905	-10,82
323,273	-10,39
323,641	-9,96
324,009	-9,62
324,377	-9,36
324,745	-9,09
325,113	-8,68
325,481	-8,24
325,849	-8,07
326,216	-7,86
326,584	-7,57
326,952	-7,28
327,32	-6,83
327,687	-6,46
328,055	-6,15
328,423	-5,95
328,79	-5,95
329,158	-5,98
329,525	-5,98
329,893	-5,94
330,26	-5,77
330,628	-5,7
330,995	-5,67
331,362	-5,75
331,73	-5,82
332,097	-5,69
332,464	-5,59
332,831	-5,58
333,199	-5,65
333,566	-5,57
333,933	-5,37
334,3	-5,18
334,667	-5,1
335,034	-5,12
335,401	-5,2
335,768	-5,23
336,135	-5,17
336,502	-5,05
336,868	-4,98
337,235	-4,95
337,602	-4,87
337,969	-4,67
338,335	-4,49
338,702	-4,28
339,069	-4,09
339,435	-3,95
339,802	-3,81
340,168	-3,73
340,535	-3,63
340,901	-3,61
341,267	-3,53
341,634	-3,45
342	-3,38
342,366	-3,25
342,733	-3,15
343,099	-2,97
343,465	-2,87
343,831	-2,85
344,197	-2,79
344,563	-2,74
344,929	-2,7
345,295	-2,62
345,661	-2,59
346,027	-2,6
346,393	-2,65
346,759	-2,6
347,125	-2,53
347,491	-2,51
347,856	-2,54
348,222	-2,6
348,588	-2,49
348,953	-2,41
349,319	-2,49
349,684	-2,49
350,05	-2,5
350,415	-2,41
350,781	-2,34
351,146	-2,2
351,512	-1,99
351,877	-1,85
352,242	-1,77
352,608	-1,66
352,973	-1,52
353,338	-1,39
353,703	-1,25
354,068	-1,17
354,433	-1,09
354,798	-1,06
355,164	-0,99
355,528	-0,86
355,893	-0,74
356,258	-0,69
356,623	-0,6
356,988	-0,43
357,353	-0,36
357,718	-0,31
358,082	-0,28
358,447	-0,22
358,812	-0,14
359,176	-0,11
359,541	-0,02
359,905	0,08
360,27	0,14
360,634	0,14
360,999	0,14
361,363	0,13
361,728	0,17
362,092	0,24
362,456	0,28
362,821	0,31
363,185	0,36
363,549	0,45
363,913	0,51
364,277	0,53
364,641	0,51
365,005	0,57
365,369	0,64
365,733	0,68
366,097	0,7
366,461	0,71
366,825	0,75
367,189	0,74
367,553	0,77
367,916	0,87
368,28	0,97
368,644	1,07
369,007	1,18
369,371	1,31
369,734	1,4
370,098	1,49
370,461	1,57
370,825	1,6
371,188	1,65
371,552	1,72
371,915	1,8
372,278	1,95
372,642	2,05
373,005	2,17
373,368	2,33
373,731	2,47
374,094	2,58
374,457	2,68
374,82	2,83
375,183	2,95
375,546	3,02
375,909	3,07
376,272	3,15
376,635	3,23
376,998	3,29
377,361	3,35
377,723	3,46
378,086	3,57
378,449	3,65
378,811	3,72
379,174	3,81
379,537	3,9
379,899	3,93
380,262	3,94
380,624	3,97
380,987	3,98
381,349	4,02
381,711	4,05
382,074	4,11
382,436	4,17
382,798	4,23
383,16	4,28
383,522	4,33
383,884	4,36
384,247	4,4
384,609	4,44
384,971	4,46
385,333	4,47
385,695	4,48
386,056	4,51
386,418	4,52
386,78	4,55
387,142	4,55
387,504	4,56
387,865	4,59
388,227	4,62
388,589	4,64
388,95	4,67
389,312	4,68
389,673	4,67
390,035	4,68
390,396	4,68
390,758	4,7
391,119	4,73
391,48	4,76
391,842	4,81
392,203	4,82
392,564	4,83
392,925	4,89
393,286	4,91
393,648	4,94
394,009	4,98
394,37	5
394,731	5,04
395,092	5,07
395,452	5,1
395,813	5,14
396,174	5,17
396,535	5,19
396,896	5,23
397,257	5,29
397,617	5,33
397,978	5,35
398,338	5,37
398,699	5,41
399,06	5,45
399,42	5,45
399,781	5,43
400,141	5,45
400,501	5,45
400,862	5,47
401,222	5,49
401,582	5,49
401,943	5,51
402,303	5,52
402,663	5,53
403,023	5,54
403,383	5,54
403,743	5,55
404,103	5,55
404,463	5,53
404,823	5,52
405,183	5,5
405,543	5,51
405,903	5,5
406,262	5,49
406,622	5,45
406,982	5,45
407,342	5,48
407,701	5,51
408,061	5,53
408,42	5,55
408,78	5,57
409,139	5,58
409,499	5,59
409,858	5,6
410,217	5,64
410,577	5,66
410,936	5,65
411,295	5,64
411,655	5,64
412,014	5,64
412,373	5,63
412,732	5,59
413,091	5,57
413,45	5,54
413,809	5,51
414,168	5,47
414,527	5,42
414,886	5,37
415,245	5,32
415,603	5,28
415,962	5,23
416,321	5,19
416,679	5,15
417,038	5,11
417,397	5,05
417,755	5
418,114	4,98
418,472	4,96
418,831	4,95
419,189	4,94
419,547	4,92
419,906	4,91
420,264	4,9
420,622	4,88
420,981	4,88
421,339	4,89
421,697	4,9
422,055	4,91
422,413	4,93
422,771	4,96
423,129	4,98
423,487	5,01
423,845	5,04
424,203	5,07
424,56	5,12
424,918	5,16
425,276	5,21
425,634	5,25
425,991	5,28
426,349	5,31
426,707	5,35
427,064	5,4
427,422	5,42
427,779	5,47
428,137	5,55
428,494	5,61
428,851	5,65
429,209	5,67
429,566	5,67
429,923	5,67
430,28	5,65
430,637	5,64
430,995	5,62
431,352	5,61
431,709	5,59
432,066	5,58
432,423	5,6
432,78	5,6
433,137	5,58
433,493	5,58
433,85	5,6
434,207	5,56
434,564	5,54
434,92	5,55
435,277	5,53
435,634	5,5
435,99	5,48
436,347	5,45
436,703	5,46
437,06	5,45
437,416	5,46
437,773	5,47
438,129	5,46
438,485	5,47
438,841	5,47
439,198	5,46
439,554	5,46
439,91	5,47
440,266	5,47
440,622	5,47
440,978	5,46
441,334	5,44
441,69	5,43
442,046	5,42
442,402	5,39
442,758	5,37
443,113	5,38
443,469	5,36
443,825	5,36
444,181	5,37
444,536	5,39
444,892	5,4
445,247	5,42
445,603	5,43
445,958	5,43
446,314	5,45
446,669	5,45
447,025	5,45
447,38	5,45
447,735	5,47
448,09	5,47
448,446	5,48
448,801	5,5
449,156	5,52
449,511	5,55
449,866	5,61
450,221	5,66
450,576	5,69
450,931	5,75
451,286	5,79
451,641	5,82
451,995	5,85
452,35	5,88
452,705	5,88
453,06	5,89
453,414	5,9
453,769	5,91
454,123	5,91
454,478	5,91
454,832	5,91
455,187	5,87
455,541	5,85
455,896	5,82
456,25	5,79
456,604	5,78
456,958	5,76
457,313	5,75
457,667	5,73
458,021	5,74
458,375	5,73
458,729	5,75
459,083	5,75
459,437	5,75
459,791	5,75
460,145	5,76
460,499	5,76
460,852	5,74
461,206	5,76
461,56	5,77
461,914	5,78
462,267	5,78
462,621	5,8
462,974	5,82
463,328	5,86
463,681	5,89
464,035	5,92
464,388	5,94
464,742	5,96
465,095	5,98
465,448	5,98
465,801	5,98
466,155	5,96
466,508	5,94
466,861	5,92
467,214	5,92
467,567	5,92
467,92	5,94
468,273	5,96
468,626	5,96
468,979	5,95
469,332	5,96
469,684	5,97
470,037	6
470,39	6,01
470,743	6,04
471,095	6,07
471,448	6,08
471,8	6,1
472,153	6,11
472,505	6,13
472,858	6,14
473,21	6,16
473,562	6,19
473,915	6,21
474,267	6,23
474,619	6,24
474,971	6,26
475,324	6,25
475,676	6,25
476,028	6,26
476,38	6,26
476,732	6,27
477,084	6,26
477,436	6,24
477,787	6,22
478,139	6,19
478,491	6,19
478,843	6,18
479,195	6,17
479,546	6,13
479,898	6,1
480,249	6,06
480,601	6,02
480,952	5,99
481,304	5,98
481,655	5,97
482,007	5,97
482,358	5,97
482,709	5,97
483,061	5,96
483,412	5,95
483,763	5,97
484,114	5,97
484,465	5,97
484,816	5,97
485,167	5,98
485,518	5,99
485,869	5,99
486,22	6
486,571	6,01
486,922	6,03
487,272	6,04
487,623	6,07
487,974	6,1
488,324	6,11
488,675	6,12
489,025	6,13
489,376	6,14
489,726	6,15
490,077	6,16
490,427	6,19
490,778	6,22
491,128	6,23
491,478	6,25
491,828	6,28
492,179	6,3
492,529	6,33
492,879	6,34
493,229	6,37
493,579	6,39
493,929	6,39
494,279	6,4
494,629	6,43
494,979	6,45
495,328	6,5
495,678	6,56
496,028	6,6
496,378	6,65
496,727	6,67
497,077	6,68
497,426	6,71
497,776	6,71
498,125	6,71
498,475	6,72
498,824	6,74
499,174	6,76
499,523	6,77
499,872	6,79
500,221	6,81
500,571	6,83
500,92	6,83
501,269	6,86
501,618	6,88
501,967	6,9
502,316	6,9
502,665	6,91
503,014	6,91
503,363	6,93
503,711	6,95
504,06	6,97
504,409	6,98
504,758	6,98
505,106	7
505,455	7,02
505,803	7,03
506,152	7,03
506,5	7,03
506,849	7,04
507,197	7,03
507,546	7,04
507,894	7,06
508,242	7,07
508,59	7,06
508,939	7,06
509,287	7,08
509,635	7,11
509,983	7,13
510,331	7,15
510,679	7,18
511,027	7,19
511,375	7,2
511,723	7,23
512,07	7,26
512,418	7,29
512,766	7,3
513,114	7,33
513,461	7,36
513,809	7,36
514,156	7,37
514,504	7,4
514,851	7,39
515,199	7,38
515,546	7,4
515,893	7,44
516,241	7,45
516,588	7,46
516,935	7,47
517,282	7,49
517,63	7,51
517,977	7,52
518,324	7,56
518,671	7,57
519,018	7,59
519,365	7,61
519,711	7,62
520,058	7,65
520,405	7,66
520,752	7,68
521,099	7,71
521,445	7,75
521,792	7,77
522,138	7,8
522,485	7,83
522,832	7,85
523,178	7,88
523,524	7,91
523,871	7,92
524,217	7,93
524,563	7,91
524,91	7,89
525,256	7,88
525,602	7,89
525,948	7,89
526,294	7,89
526,64	7,89
526,986	7,89
527,332	7,88
527,678	7,89
528,024	7,9
528,37	7,92
528,716	7,92
529,061	7,93
529,407	7,97
529,753	7,99
530,098	8,01
530,444	8,01
530,789	8,02
531,135	8,03
531,48	8,05
531,826	8,07
532,171	8,11
532,516	8,16
532,862	8,19
533,207	8,23
533,552	8,27
533,897	8,3
534,242	8,33
534,587	8,36
534,932	8,4
535,277	8,42
535,622	8,43
535,967	8,46
536,312	8,49
536,657	8,51
537,001	8,55
537,346	8,58
537,691	8,63
538,035	8,65
538,38	8,68
538,724	8,7
539,069	8,72
539,413	8,74
539,758	8,74
540,102	8,77
540,446	8,78
540,791	8,79
541,135	8,81
541,479	8,81
541,823	8,84
542,167	8,85
542,512	8,87
542,856	8,87
543,2	8,87
543,543	8,87
543,887	8,88
544,231	8,91
544,575	8,93
544,919	8,96
545,262	9,01
545,606	9,05
545,95	9,08
546,293	9,11
546,637	9,13
546,98	9,16
547,324	9,19
547,667	9,24
548,011	9,27
548,354	9,3
548,697	9,34
549,04	9,35
549,384	9,36
549,727	9,38
550,07	9,45
550,413	9,49
550,756	9,52
551,099	9,54
551,442	9,53
551,785	9,58
552,128	9,57
552,47	9,57
552,813	9,59
553,156	9,59
553,499	9,62
553,841	9,63
554,184	9,64
554,526	9,65
554,869	9,66
555,211	9,66
555,554	9,67
555,896	9,67
556,238	9,67
556,581	9,67
556,923	9,66
557,265	9,64
557,607	9,66
557,949	9,67
558,291	9,68
558,633	9,69
558,975	9,69
559,317	9,71
559,659	9,74
560,001	9,74
560,343	9,74
560,685	9,75
561,026	9,76
561,368	9,77
561,71	9,77
562,051	9,76
562,393	9,78
562,734	9,77
563,076	9,8
563,417	9,84
563,759	9,9
564,1	9,92
564,441	9,96
564,782	9,94
565,124	9,94
565,465	9,95
565,806	9,96
566,147	9,97
566,488	9,98
566,829	9,97
567,17	9,98
567,511	10
567,851	10
568,192	10,01
568,533	10,04
568,874	10,08
569,214	10,13
569,555	10,14
569,895	10,15
570,236	10,16
570,576	10,16
570,917	10,15
571,257	10,17
571,598	10,18
571,938	10,22
572,278	10,25
572,618	10,29
572,959	10,32
573,299	10,35
573,639	10,34
573,979	10,37
574,319	10,37
574,659	10,4
574,999	10,4
575,339	10,42
575,678	10,41
576,018	10,4
576,358	10,38
576,698	10,38
577,037	10,4
577,377	10,41
577,716	10,4
578,056	10,42
578,395	10,44
578,735	10,42
579,074	10,43
579,413	10,44
579,753	10,42
580,092	10,4
580,431	10,4
580,77	10,46
581,109	10,46
581,448	10,47
581,787	10,45
582,126	10,49
582,465	10,49
582,804	10,53
583,143	10,57
583,482	10,59
583,82	10,6
584,159	10,62
584,498	10,65
584,836	10,68
585,175	10,67
585,514	10,68
585,852	10,73
586,19	10,75
586,529	10,76
586,867	10,8
587,205	10,84
587,544	10,89
587,882	10,9
588,22	10,93
588,558	11
588,896	11,05
589,234	11,09
589,572	11,12
589,91	11,12
590,248	11,13
590,586	11,17
590,924	11,23
591,262	11,27
591,599	11,28
591,937	11,3
592,275	11,34
592,612	11,37
592,95	11,42
593,287	11,5
593,625	11,55
593,962	11,61
594,299	11,67
594,637	11,72
594,974	11,78
595,311	11,82
595,648	11,85
595,985	11,88
596,322	11,89
596,659	11,92
596,996	11,97
597,333	11,98
597,67	12
598,007	12,04
598,344	12,06
598,681	12,1
599,017	12,15
599,354	12,21
599,691	12,23
600,027	12,27
600,364	12,29
600,7	12,34
601,037	12,38
601,373	12,43
601,71	12,47
602,046	12,53
602,382	12,57
602,718	12,62
603,054	12,66
603,391	12,69
603,727	12,73
604,063	12,78
604,399	12,83
604,735	12,86
605,071	12,89
605,406	12,93
605,742	12,98
606,078	13,03
606,414	13,05
606,749	13,12
607,085	13,17
607,421	13,21
607,756	13,23
608,092	13,26
608,427	13,3
608,762	13,31
609,098	13,31
609,433	13,33
609,768	13,31
610,104	13,32
610,439	13,32
610,774	13,35
611,109	13,35
611,444	13,36
611,779	13,37
612,114	13,36
612,449	13,4
612,784	13,4
613,118	13,4
613,453	13,41
613,788	13,38
614,123	13,37
614,457	13,35
614,792	13,38
615,126	13,4
615,461	13,39
615,795	13,39
616,13	13,41
616,464	13,43
616,798	13,45
617,132	13,49
617,467	13,53
617,801	13,54
618,135	13,57
618,469	13,61
618,803	13,66
619,137	13,72
619,471	13,74
619,805	13,75
620,139	13,79
620,472	13,87
620,806	13,92
621,14	13,96
621,473	13,98
621,807	13,98
622,141	13,98
622,474	14
622,808	14,03
623,141	14,07
623,474	14,12
623,808	14,21
624,141	14,28
624,474	14,36
624,807	14,43
625,141	14,49
625,474	14,56
625,807	14,62
626,14	14,65
626,473	14,7
626,806	14,76
627,138	14,81
627,471	14,82
627,804	14,84
628,137	14,9
628,469	14,94
628,802	15,03
629,135	15,07
629,467	15,13
629,8	15,18
630,132	15,21
630,465	15,26
630,797	15,31
631,129	15,35
631,461	15,38
631,794	15,4
632,126	15,42
632,458	15,43
632,79	15,44
633,122	15,48
633,454	15,51
633,786	15,55
634,118	15,56
634,45	15,59
634,781	15,62
635,113	15,65
635,445	15,71
635,777	15,75
636,108	15,78
636,44	15,8
636,771	15,84
637,103	15,86
637,434	15,86
637,765	15,87
638,097	15,88
638,428	15,88
638,759	15,88
639,09	15,94
639,422	15,98
639,753	16,03
640,084	16,05
640,415	16,06
640,746	16,05
641,077	16,1
641,407	16,11
641,738	16,19
642,069	16,2
642,4	16,22
642,73	16,21
643,061	16,25
643,392	16,27
643,722	16,33
644,053	16,38
644,383	16,45
644,713	16,48
645,044	16,52
645,374	16,57
645,704	16,62
646,034	16,64
646,365	16,63
646,695	16,67
647,025	16,73
647,355	16,75
647,685	16,8
648,015	16,8
648,344	16,85
648,674	16,89
649,004	16,93
649,334	16,93
649,663	17,03
649,993	17,08
650,323	17,14
650,652	17,15
650,982	17,19
651,311	17,19
651,64	17,21
651,97	17,2
652,299	17,27
652,628	17,31
652,958	17,34
653,287	17,46
653,616	17,45
653,945	17,47
654,274	17,53
654,603	17,54
654,932	17,59
655,261	17,62
655,589	17,6
655,918	17,66
656,247	17,72
656,576	17,78
656,904	17,83
657,233	17,88
657,561	17,95
657,89	18,01
658,218	18,11
658,547	18,16
658,875	18,21
659,203	18,23
659,532	18,25
659,86	18,31
660,188	18,29
660,516	18,39
660,844	18,45
661,172	18,5
661,5	18,57
661,828	18,62
662,156	18,66
662,484	18,75
662,811	18,78
663,139	18,81
663,467	18,82
663,794	18,86
664,122	18,82
664,45	18,8
664,777	18,78
665,104	18,82
665,432	18,83
665,759	18,83
666,086	18,87
666,414	18,89
666,741	18,9
667,068	18,89
667,395	18,87
667,722	18,91
668,049	18,9
668,376	18,94
668,703	18,98
669,03	19,04
669,357	19,04
669,683	19,03
670,01	19,08
670,337	19,07
670,663	19,06
670,99	19,1
671,317	19,17
671,643	19,18
671,969	19,16
672,296	19,2
672,622	19,31
672,948	19,32
673,275	19,36
673,601	19,36
673,927	19,42
674,253	19,5
674,579	19,54
674,905	19,57
675,231	19,59
675,557	19,59
675,883	19,59
676,209	19,66
676,534	19,73
676,86	19,8
677,186	19,88
677,511	19,97
677,837	20
678,162	20,04
678,488	20,13
678,813	20,21
679,139	20,32
679,464	20,35
679,789	20,37
680,114	20,4
680,44	20,48
680,765	20,51
681,09	20,47
681,415	20,42
681,74	20,45
682,065	20,48
682,39	20,54
682,714	20,56
683,039	20,57
683,364	20,64
683,689	20,64
684,013	20,65
684,338	20,64
684,662	20,71
684,987	20,78
685,311	20,84
685,636	20,8
685,96	20,76
686,284	20,73
686,608	20,73
686,933	20,73
687,257	20,72
687,581	20,75
687,905	20,84
688,229	20,92
688,553	20,93
688,877	20,96
689,201	20,99
689,524	21,06
689,848	21,13
690,172	21,16
690,496	21,19
690,819	21,16
691,143	21,18
691,466	21,17
691,79	21,16
692,113	21,14
692,436	21,19
692,76	21,21
693,083	21,28
693,406	21,33
693,729	21,38
694,053	21,4
694,376	21,46
694,699	21,52
695,022	21,6
695,344	21,74
695,667	21,82
695,99	21,91
696,313	22,01
696,636	22,06
696,958	22,07
697,281	22,13
697,604	22,24
697,926	22,28
698,249	22,35
698,571	22,4
698,893	22,43
699,216	22,45
699,538	22,48
699,86	22,47
700,182	22,47
700,504	22,51
700,827	22,53
701,149	22,52
701,471	22,49
701,793	22,49
702,114	22,46
702,436	22,41
702,758	22,33
703,08	22,2
703,401	22,17
703,723	22,13
704,045	22,11
704,366	22,06
704,688	22,03
705,009	21,95
705,331	21,98
705,652	22,03
705,973	22,08
706,294	22,16
706,616	22,21
706,937	22,27
707,258	22,29
707,579	22,32
707,9	22,37
708,221	22,4
708,542	22,48
708,863	22,54
709,183	22,65
709,504	22,8
709,825	22,88
710,145	22,9
710,466	23,02
710,787	23,12
711,107	23,18
711,427	23,23
711,748	23,32
712,068	23,38
712,388	23,36
712,709	23,42
713,029	23,48
713,349	23,55
713,669	23,61
713,989	23,7
714,309	23,81
714,629	23,9
714,949	24,01
715,269	24
715,589	24,03
715,908	24,01
716,228	24,01
716,548	24,11
716,867	24,15
717,187	24,16
717,506	24,15
717,826	24,14
718,145	24,22
718,465	24,32
718,784	24,27
719,103	24,34
719,422	24,44
719,741	24,47
720,061	24,51
720,38	24,62
720,699	24,69
721,018	24,76
721,336	24,87
721,655	24,98
721,974	25,12
722,293	25,27
722,612	25,46
722,93	25,55
723,249	25,64
723,567	25,74
723,886	25,85
724,204	25,95
724,523	26,15
724,841	26,29
725,159	26,42
725,477	26,63
725,796	26,85
726,114	27,01
726,432	27,18
726,75	27,35
727,068	27,52
727,386	27,7
727,704	27,81
728,022	27,86
728,339	27,85
728,657	27,89
728,975	27,93
729,292	28,03
729,61	28,08
729,928	28,22
730,245	28,4
730,562	28,52
730,88	28,72
731,197	28,88
731,514	29,03
731,832	29,14
732,149	29,2
732,466	29,22
732,783	29,16
733,1	29,26
733,417	29,41
733,734	29,48
734,051	29,51
734,368	29,55
734,684	29,7
735,001	29,9
735,318	30,15
735,634	30,34
735,951	30,42
736,268	30,62
736,584	30,67
736,9	30,69
737,217	30,74
737,533	30,8
737,849	30,93
738,166	30,94
738,482	31,02
738,798	31,23
739,114	31,38
739,43	31,59
739,746	31,64
740,062	31,6
740,378	31,68
740,693	31,81
741,009	32,08
741,325	32,21
741,641	32,21
741,956	32,18
742,272	32,23
742,587	32,37
742,903	32,49
743,218	32,55
743,533	32,68
743,849	32,79
744,164	32,77
744,479	32,73
744,794	32,87
745,109	32,92
745,424	32,87
745,739	32,92
746,054	32,96
746,369	32,89
746,684	33,01
746,999	33,18
747,313	33,22
747,628	33,11
747,943	33,05
748,257	33,15
748,572	33,3
748,886	33,39
749,201	33,47
749,515	33,51
749,829	33,68
750,144	33,88
750,458	34,03
750,772	34,23
751,086	34,31
751,4	34,41
751,714	34,42
752,028	34,49
752,342	34,57
752,656	34,67
752,97	35
753,284	35,11
753,597	35,16
753,911	35,22
754,225	35,36
754,538	35,42
754,852	35,47
755,165	35,55
755,478	35,6
755,792	35,64
756,105	35,7
756,418	35,69
756,731	35,68
757,045	35,66
757,358	35,7
757,671	35,81
757,984	35,88
758,297	35,99
758,609	36,02
758,922	36,03
759,235	36,01
759,548	35,91
759,86	35,82
760,173	35,54
760,486	35,54
760,798	35,37
761,111	35,41
761,423	35,46
761,735	35,41
762,048	35,42
762,36	35,47
762,672	35,54
762,984	35,68
763,296	35,78
763,608	35,93
763,92	36,01
764,232	36,14
764,544	36,25
764,856	36,34
765,168	36,48
765,48	36,7
765,791	36,81
766,103	36,96
766,414	37,25
766,726	37,72
767,037	37,99
767,349	38,53
767,66	38,95
767,972	39,33
768,283	39,75
768,594	40,07
768,905	40,24
769,216	40,52
769,527	40,76
769,838	40,84
770,149	41,01
770,46	41,24
770,771	41,35
771,082	41,5
771,393	41,79
771,703	42,04
772,014	42,19
772,324	42,35
772,635	42,59
772,945	42,69
773,256	42,7
773,566	42,67
773,877	42,51
774,187	42,43
774,497	42,36
774,807	42,38
775,117	42,48
775,427	42,71
775,737	42,79
776,047	42,73
776,357	42,77
776,667	42,68
776,977	42,73
777,287	42,86
777,596	42,9
777,906	42,89
778,216	42,92
778,525	42,89
778,835	42,95
779,144	43,21
779,453	43,42
779,763	43,75
780,072	43,99
780,381	44,27
780,69	44,44
781	44,76
781,309	45,07
781,618	45,24
781,927	45,46
782,235	45,53
782,544	45,79
782,853	46,26
783,162	46,67
783,471	46,88
783,779	47,09
784,088	47,15
784,396	47,23
784,705	47,15
785,013	46,87
785,322	46,7
785,63	46,44
785,938	46,02
786,246	45,81
786,554	45,76
786,863	45,97
787,171	46,09
787,479	46,17
787,787	46,18
788,094	46,32
788,402	46,26
788,71	46,43
789,018	46,33
789,326	46,01
789,633	45,77
789,941	45,53
790,248	45,4
790,556	45,44
790,863	45,43
791,171	45,53
791,478	46,01
791,785	46,53
792,092	46,39
792,399	46,78
792,707	47
793,014	47,14
793,321	47,03
793,628	47,03
793,934	46,93
794,241	46,73
794,548	46,48
794,855	46,44
795,161	46,49
795,468	46,49
795,775	46,55
796,081	46,68
796,388	46,63
796,694	46,47
797	46,37
797,307	46,55
797,613	46,77
797,919	46,84
798,225	46,82
798,531	47,25
798,837	47,27
799,143	47,08
799,449	47
799,755	47,26
800,061	47,34
800,367	47,57
800,672	47,86
800,978	48,12
801,284	48,24
801,589	48,22
801,895	48,46
802,2	48,78
802,506	49,09
802,811	49,33
803,116	49,64
803,421	49,79
803,727	49,71
804,032	49,65
804,337	49,45
804,642	49,35
804,947	49,33
805,252	49,29
805,556	49,6
805,861	49,87
806,166	49,73
806,471	49,59
806,775	49,28
807,08	49,09
807,384	49,02
807,689	49,1
807,993	49,16
808,298	49,07
808,602	48,94
808,906	48,88
809,211	49,07
809,515	49,12
809,819	49,27
810,123	49,46
810,427	49,58
810,731	49,68
811,035	49,77
811,338	49,74
811,642	49,86
811,946	49,83
812,25	49,8
812,553	50,03
812,857	50,37
813,16	50,61
813,464	50,67
813,767	50,76
814,07	50,78
814,374	50,94
814,677	51,16
814,98	51,36
815,283	51,52
815,586	51,41
815,889	51,34
816,192	51,28
816,495	51,37
816,798	51,39
817,101	51,21
817,404	50,82
817,706	50,36
818,009	49,55
818,312	48,59
818,614	47,55
818,917	45,76
819,219	44,35
819,521	43,02
819,824	42,12
820,126	41,44
820,428	40,73
820,73	40,22
821,032	39,81
821,334	39,67
821,636	39,44
821,938	39,47
822,24	39,46
822,542	39,44
822,844	39,39
823,145	39,29
823,447	39,28
823,749	39,27
824,05	39,21
824,352	39,29
824,653	39,39
824,955	39,51
825,256	39,66
825,557	39,8
825,858	40,15
826,16	40,45
826,461	40,81
826,762	41,37
827,063	41,9
827,364	42,49
827,665	42,91
827,965	43,4
828,266	43,68
828,567	44
828,868	44,19
829,168	44,46
829,469	44,74
829,769	44,99
830,07	45,24
830,37	45,63
830,67	45,93
830,971	46,13
831,271	46,35
831,571	46,66
831,871	46,96
832,171	47,03
832,471	47,07
832,771	47
833,071	46,76
833,371	46,67
833,671	46,6
833,971	46,64
834,27	46,65
834,57	46,86
834,869	47,01
835,169	47,37
835,468	47,36
835,768	47,39
836,067	47,48
836,367	47,6
836,666	47,86
836,965	48,24
837,264	48,77
837,563	49,2
837,862	50,04
838,161	50,62
838,46	51,03
838,759	51,71
839,058	52,45
839,356	53,29
839,655	53,89
839,954	54,38
840,252	54,47
840,551	54,93
840,849	55,19
841,148	55,73
841,446	55,72
841,744	55,9
842,043	56,31
842,341	56,59
842,639	57,09
842,937	57,43
843,235	57,47
843,533	57,82
843,831	58,21
844,129	58,53
844,427	59,19
844,724	59,74
845,022	60,23
845,32	60,75
845,617	61,38
845,915	62,14
846,212	63
846,51	63,73
846,807	63,99
847,104	63,77
847,402	63,18
847,699	63,42
847,996	63,75
848,293	63,85
848,59	64,15
848,887	64,27
849,184	64,23
849,481	64,75
849,778	65,23
850,074	65,8
850,371	66,64
850,668	66,81
850,964	66,56
851,261	66,55
851,557	66,24
851,854	66,07
852,15	65,86
852,446	65,96
852,743	66,28
853,039	67,07
853,335	67,42
853,631	67,77
853,927	67,66
854,223	67,79
854,519	68,25
854,815	68,33
855,111	68,61
855,406	69,54
855,702	70,51
855,998	71,17
856,293	71,49
856,589	71,06
856,884	71,04
857,18	71,73
857,475	72,4
857,77	73,35
858,066	74
858,361	74,11
858,656	74,23
858,951	74,35
859,246	74,23
859,541	74,13
859,836	73,73
860,131	73,57
860,426	72,78
860,72	71,99
861,015	71,67
861,31	71,77
861,604	71,41
861,899	70,41
862,193	70
862,487	70,12
862,782	70,5
863,076	70,75
863,37	71,28
863,664	70,39
863,959	69,4
864,253	68,75
864,547	69,24
864,841	69,51
865,135	69,9
865,428	70,24
865,722	70,14
866,016	70,31
866,31	70,78
866,603	71,72
866,897	72,4
867,19	72,72
867,484	72,73
867,777	72,56
868,07	72,17
868,364	71,93
868,657	71,77
868,95	71,29
869,243	71,03
869,536	70,4
869,829	70,88
870,122	71,4
870,415	71,1
870,708	71,01
871	70,6
871,293	69,99
871,586	69,12
871,878	68,53
872,171	68,52
872,463	68,38
872,756	68,11
873,048	67,66
873,341	67,52
873,633	67,07
873,925	66,86
874,217	66,95
874,509	66,52
874,801	65,85
875,093	66,07
875,385	66,08
875,677	65,98
875,969	65,28
