Data from zc74042_1_Reflection_00005.txt Node
Date: Thu Mar 12 14:48:46 ART 2020
User: Ana
Spectrometer: USB2E3644
Trigger mode: 4
Integration Time (sec): 5,000000E-2
Scans to average: 10
Electric dark correction enabled: true
Nonlinearity correction enabled: false
Boxcar width: 10
XAxis mode: Wavelengths
Number of Pixels in Spectrum: 2048
>>>>>Begin Spectral Data<<<<<
178,315	107
178,696	103,2
179,076	100,19
179,457	95,01
179,838	71,72
180,218	60,51
180,599	82,05
180,979	-10,71
181,36	45,74
181,74	87,15
182,121	95,14
182,501	103,22
182,881	92,64
183,262	89,18
183,642	93,33
184,022	99,02
184,402	105,11
184,783	105,56
185,163	108,39
185,543	109,9
185,923	110,37
186,303	111,27
186,683	112,54
187,063	113,15
187,443	112,17
187,823	108,86
188,203	109,45
188,583	112,15
188,963	116,23
189,343	120,57
189,723	119,28
190,102	120,09
190,482	124,28
190,862	128,71
191,242	132,08
191,621	131,33
192,001	129,68
192,38	126,9
192,76	128,18
193,14	130,03
193,519	130,19
193,898	130,07
194,278	129,77
194,657	128,3
195,037	127,59
195,416	128,79
195,795	130,29
196,175	130,23
196,554	129,86
196,933	127,39
197,312	125,8
197,692	124,93
198,071	123,15
198,45	119,94
198,829	118,7
199,208	117,35
199,587	116,48
199,966	115,13
200,345	114,45
200,724	113,19
201,103	111,84
201,482	110,95
201,86	110,85
202,239	110,95
202,618	111,16
202,997	111,72
203,375	111,41
203,754	111,84
204,133	112,58
204,511	112,04
204,89	111,43
205,269	111,15
205,647	112,59
206,026	113,79
206,404	114,76
206,782	114,71
207,161	114,22
207,539	114,99
207,918	116,7
208,296	116,95
208,674	117,02
209,052	116,63
209,431	116,67
209,809	115,39
210,187	113,24
210,565	111,99
210,943	111,19
211,321	110,75
211,699	109,56
212,077	108,22
212,455	107,46
212,833	106,86
213,211	105,69
213,589	103,46
213,967	101,26
214,345	101,01
214,722	100,78
215,1	102,21
215,478	101,74
215,855	100,56
216,233	100,2
216,611	100,21
216,988	100,86
217,366	100,61
217,743	101,53
218,121	103,84
218,498	105,28
218,876	105,05
219,253	105,16
219,631	106,72
220,008	108,87
220,385	109,93
220,762	110,15
221,14	112,67
221,517	114,51
221,894	115,76
222,271	116,22
222,648	117,53
223,025	118,2
223,402	119,37
223,78	120,97
224,157	122,38
224,533	122,43
224,91	122,5
225,287	124,16
225,664	126,93
226,041	131,4
226,418	135,26
226,795	138,68
227,171	142,4
227,548	144,82
227,925	145,46
228,301	148,58
228,678	151,39
229,055	151,18
229,431	153,22
229,808	157,81
230,184	160,2
230,561	162,51
230,937	165,15
231,313	168,25
231,69	171,58
232,066	172,63
232,442	175,35
232,819	180,09
233,195	180,56
233,571	182,19
233,947	181,36
234,323	180,78
234,699	183,43
235,075	183,97
235,451	183,59
235,827	186,37
236,203	188,78
236,579	194,5
236,955	205,25
237,331	218,23
237,707	233,49
238,083	262,54
238,459	312,9
238,834	401,05
239,21	571,88
239,586	906,85
239,961	1833,94
240,337	5542,59
240,713	-11040,74
241,088	-3105,21
241,464	-2278,79
241,839	-1733,33
242,215	-1047,14
242,59	-612,09
242,965	-339,25
243,341	-204,91
243,716	-139,43
244,091	-111,09
244,467	-96,47
244,842	-86,69
245,217	-79,37
245,592	-75,25
245,967	-74,94
246,343	-74,6
246,718	-74,43
247,093	-76,85
247,468	-78,5
247,843	-77,92
248,218	-75,81
248,593	-70,84
248,967	-65,22
249,342	-61,66
249,717	-59,13
250,092	-57,92
250,467	-59,01
250,841	-63,14
251,216	-70,92
251,591	-84,42
251,965	-96,62
252,34	-104,97
252,714	-115,47
253,089	-122,98
253,463	-128,89
253,838	-127,37
254,212	-122,19
254,587	-113,49
254,961	-98,15
255,335	-83,51
255,71	-69,56
256,084	-55,03
256,458	-44,78
256,832	-38,16
257,206	-34,44
257,581	-32,56
257,955	-31,17
258,329	-29,81
258,703	-28,49
259,077	-27,63
259,451	-26,47
259,825	-25,79
260,199	-25,86
260,572	-25,63
260,946	-25,72
261,32	-25,73
261,694	-25,26
262,068	-24,93
262,441	-24,54
262,815	-24,58
263,189	-24,58
263,562	-25,25
263,936	-27,39
264,309	-30,3
264,683	-33,25
265,056	-34,63
265,43	-34,94
265,803	-34,45
266,176	-33,81
266,55	-33,7
266,923	-33,28
267,296	-32,54
267,67	-31,43
268,043	-30,16
268,416	-27,99
268,789	-26,11
269,162	-24,62
269,535	-23,52
269,908	-22,61
270,281	-22,2
270,654	-22,33
271,027	-22,93
271,4	-22,94
271,773	-22,58
272,146	-22,17
272,519	-22,14
272,891	-22,51
273,264	-23
273,637	-23,45
274,01	-23,55
274,382	-23,94
274,755	-24,21
275,127	-24,27
275,5	-24,36
275,872	-24,5
276,245	-25,12
276,617	-25,54
276,99	-25,49
277,362	-25,69
277,734	-25,73
278,107	-25,35
278,479	-24,8
278,851	-24,07
279,223	-23,44
279,596	-22,84
279,968	-22,89
280,34	-22,85
280,712	-22,08
281,084	-21,03
281,456	-19,95
281,828	-18,88
282,2	-17,37
282,572	-16,23
282,944	-15,54
283,315	-15,2
283,687	-14,85
284,059	-14,71
284,431	-14,57
284,802	-14,34
285,174	-14,08
285,546	-14,01
285,917	-13,79
286,289	-13,55
286,66	-13,38
287,032	-13,27
287,403	-13,28
287,775	-13,2
288,146	-13,15
288,518	-13,31
288,889	-13,31
289,26	-13,44
289,632	-13,72
290,003	-14,14
290,374	-14,34
290,745	-14,43
291,116	-14,31
291,487	-14,18
291,858	-13,87
292,229	-13,52
292,6	-13,25
292,971	-12,74
293,342	-12,08
293,713	-11,48
294,084	-10,87
294,455	-10,2
294,826	-9,74
295,196	-9,54
295,567	-9,55
295,938	-9,28
296,308	-8,97
296,679	-8,9
297,05	-8,87
297,42	-8,7
297,791	-8,4
298,161	-8,26
298,532	-8,02
298,902	-7,9
299,272	-7,84
299,643	-7,76
300,013	-7,56
300,383	-7,45
300,754	-7,56
301,124	-7,73
301,494	-8,04
301,864	-8,46
302,234	-8,85
302,604	-9,06
302,974	-9,1
303,344	-8,95
303,714	-8,9
304,084	-8,8
304,454	-8,61
304,824	-8,38
305,194	-8,4
305,563	-8,51
305,933	-8,43
306,303	-8,25
306,673	-7,94
307,042	-7,43
307,412	-6,97
307,781	-6,6
308,151	-6,32
308,521	-6,21
308,89	-6,03
309,259	-6,02
309,629	-5,97
309,998	-5,9
310,368	-5,84
310,737	-5,78
311,106	-5,7
311,475	-5,64
311,845	-5,64
312,214	-5,56
312,583	-5,49
312,952	-5,43
313,321	-5,3
313,69	-5,11
314,059	-5,05
314,428	-5,13
314,797	-5,28
315,166	-5,35
315,535	-5,59
315,904	-5,88
316,272	-5,98
316,641	-6,21
317,01	-6,18
317,379	-6,09
317,747	-6,01
318,116	-5,86
318,484	-5,71
318,853	-5,71
319,221	-5,64
319,59	-5,59
319,958	-5,6
320,327	-5,62
320,695	-5,52
321,063	-5,32
321,432	-5,14
321,8	-4,98
322,168	-4,8
322,536	-4,85
322,905	-4,72
323,273	-4,43
323,641	-4,13
324,009	-3,84
324,377	-3,64
324,745	-3,44
325,113	-3,11
325,481	-2,81
325,849	-2,62
326,216	-2,47
326,584	-2,15
326,952	-1,98
327,32	-1,82
327,687	-1,68
328,055	-1,47
328,423	-1,3
328,79	-1,31
329,158	-1,47
329,525	-1,51
329,893	-1,44
330,26	-1,25
330,628	-1,25
330,995	-1,25
331,362	-1,32
331,73	-1,34
332,097	-1,18
332,464	-1,08
332,831	-1,11
333,199	-1,12
333,566	-1,05
333,933	-0,88
334,3	-0,79
334,667	-0,7
335,034	-0,52
335,401	-0,37
335,768	-0,23
336,135	-0,11
336,502	0,04
336,868	0,25
337,235	0,36
337,602	0,44
337,969	0,58
338,335	0,75
338,702	0,95
339,069	1,13
339,435	1,17
339,802	1,23
340,168	1,28
340,535	1,36
340,901	1,32
341,267	1,27
341,634	1,31
342	1,35
342,366	1,44
342,733	1,41
343,099	1,48
343,465	1,47
343,831	1,46
344,197	1,5
344,563	1,56
344,929	1,57
345,295	1,61
345,661	1,61
346,027	1,57
346,393	1,46
346,759	1,48
347,125	1,58
347,491	1,63
347,856	1,67
348,222	1,62
348,588	1,73
348,953	1,84
349,319	1,75
349,684	1,7
350,05	1,67
350,415	1,73
350,781	1,76
351,146	1,83
351,512	1,94
351,877	1,97
352,242	1,94
352,608	2,02
352,973	2,12
353,338	2,27
353,703	2,38
354,068	2,44
354,433	2,47
354,798	2,45
355,164	2,49
355,528	2,56
355,893	2,67
356,258	2,73
356,623	2,82
356,988	2,96
357,353	3,1
357,718	3,19
358,082	3,22
358,447	3,23
358,812	3,31
359,176	3,39
359,541	3,51
359,905	3,62
360,27	3,66
360,634	3,68
360,999	3,71
361,363	3,8
361,728	3,88
362,092	3,99
362,456	4,11
362,821	4,2
363,185	4,27
363,549	4,35
363,913	4,36
364,277	4,38
364,641	4,35
365,005	4,36
365,369	4,37
365,733	4,45
366,097	4,58
366,461	4,63
366,825	4,67
367,189	4,65
367,553	4,71
367,916	4,85
368,28	4,96
368,644	5,01
369,007	5,06
369,371	5,14
369,734	5,22
370,098	5,24
370,461	5,3
370,825	5,39
371,188	5,42
371,552	5,52
371,915	5,63
372,278	5,81
372,642	5,93
373,005	6,09
373,368	6,2
373,731	6,29
374,094	6,38
374,457	6,47
374,82	6,61
375,183	6,69
375,546	6,74
375,909	6,81
376,272	6,91
376,635	6,98
376,998	7,04
377,361	7,1
377,723	7,18
378,086	7,2
378,449	7,21
378,811	7,28
379,174	7,33
379,537	7,38
379,899	7,39
380,262	7,41
380,624	7,41
380,987	7,44
381,349	7,51
381,711	7,54
382,074	7,57
382,436	7,6
382,798	7,69
383,16	7,73
383,522	7,78
383,884	7,84
384,247	7,86
384,609	7,88
384,971	7,89
385,333	7,93
385,695	7,97
386,056	8,03
386,418	8,07
386,78	8,09
387,142	8,09
387,504	8,12
387,865	8,18
388,227	8,22
388,589	8,24
388,95	8,23
389,312	8,26
389,673	8,31
390,035	8,33
390,396	8,34
390,758	8,35
391,119	8,32
391,48	8,28
391,842	8,32
392,203	8,36
392,564	8,4
392,925	8,45
393,286	8,47
393,648	8,5
394,009	8,54
394,37	8,55
394,731	8,57
395,092	8,59
395,452	8,57
395,813	8,56
396,174	8,55
396,535	8,55
396,896	8,53
397,257	8,51
397,617	8,55
397,978	8,56
398,338	8,56
398,699	8,6
399,06	8,65
399,42	8,66
399,781	8,67
400,141	8,66
400,501	8,65
400,862	8,69
401,222	8,69
401,582	8,67
401,943	8,69
402,303	8,71
402,663	8,73
403,023	8,77
403,383	8,8
403,743	8,82
404,103	8,84
404,463	8,87
404,823	8,92
405,183	8,92
405,543	8,93
405,903	8,94
406,262	8,96
406,622	8,93
406,982	8,95
407,342	8,95
407,701	8,98
408,061	9
408,42	8,99
408,78	8,99
409,139	9,01
409,499	9,01
409,858	9
410,217	9,02
410,577	9
410,936	9
411,295	9
411,655	8,99
412,014	8,95
412,373	8,93
412,732	8,89
413,091	8,86
413,45	8,84
413,809	8,8
414,168	8,76
414,527	8,72
414,886	8,67
415,245	8,64
415,603	8,59
415,962	8,58
416,321	8,52
416,679	8,49
417,038	8,45
417,397	8,4
417,755	8,35
418,114	8,32
418,472	8,29
418,831	8,28
419,189	8,28
419,547	8,28
419,906	8,25
420,264	8,22
420,622	8,21
420,981	8,19
421,339	8,19
421,697	8,19
422,055	8,19
422,413	8,21
422,771	8,21
423,129	8,23
423,487	8,24
423,845	8,27
424,203	8,29
424,56	8,32
424,918	8,36
425,276	8,41
425,634	8,44
425,991	8,47
426,349	8,5
426,707	8,51
427,064	8,56
427,422	8,59
427,779	8,65
428,137	8,69
428,494	8,76
428,851	8,8
429,209	8,84
429,566	8,85
429,923	8,86
430,28	8,86
430,637	8,86
430,995	8,83
431,352	8,8
431,709	8,79
432,066	8,8
432,423	8,8
432,78	8,77
433,137	8,78
433,493	8,78
433,85	8,81
434,207	8,78
434,564	8,74
434,92	8,75
435,277	8,74
435,634	8,75
435,99	8,71
436,347	8,69
436,703	8,69
437,06	8,69
437,416	8,68
437,773	8,68
438,129	8,66
438,485	8,68
438,841	8,69
439,198	8,69
439,554	8,69
439,91	8,7
440,266	8,72
440,622	8,71
440,978	8,7
441,334	8,65
441,69	8,66
442,046	8,67
442,402	8,64
442,758	8,62
443,113	8,61
443,469	8,59
443,825	8,6
444,181	8,59
444,536	8,6
444,892	8,6
445,247	8,61
445,603	8,63
445,958	8,63
446,314	8,64
446,669	8,65
447,025	8,66
447,38	8,66
447,735	8,66
448,09	8,67
448,446	8,71
448,801	8,73
449,156	8,73
449,511	8,76
449,866	8,81
450,221	8,84
450,576	8,88
450,931	8,95
451,286	8,97
451,641	9
451,995	9,01
452,35	9,04
452,705	9,05
453,06	9,07
453,414	9,09
453,769	9,1
454,123	9,11
454,478	9,13
454,832	9,15
455,187	9,14
455,541	9,11
455,896	9,08
456,25	9,06
456,604	9,04
456,958	9,02
457,313	9
457,667	8,98
458,021	8,96
458,375	8,96
458,729	8,99
459,083	9,01
459,437	9,03
459,791	9,03
460,145	9,05
460,499	9,05
460,852	9,04
461,206	9,04
461,56	9,03
461,914	9,01
462,267	9
462,621	9,01
462,974	9,04
463,328	9,04
463,681	9,07
464,035	9,1
464,388	9,13
464,742	9,15
465,095	9,18
465,448	9,19
465,801	9,17
466,155	9,14
466,508	9,13
466,861	9,13
467,214	9,13
467,567	9,12
467,92	9,11
468,273	9,12
468,626	9,1
468,979	9,11
469,332	9,13
469,684	9,13
470,037	9,13
470,39	9,15
470,743	9,18
471,095	9,19
471,448	9,19
471,8	9,2
472,153	9,21
472,505	9,21
472,858	9,22
473,21	9,24
473,562	9,26
473,915	9,27
474,267	9,27
474,619	9,29
474,971	9,29
475,324	9,27
475,676	9,29
476,028	9,32
476,38	9,32
476,732	9,31
477,084	9,32
477,436	9,32
477,787	9,3
478,139	9,28
478,491	9,27
478,843	9,26
479,195	9,27
479,546	9,21
479,898	9,18
480,249	9,13
480,601	9,09
480,952	9,06
481,304	9,03
481,655	9,02
482,007	8,99
482,358	8,98
482,709	8,96
483,061	8,95
483,412	8,95
483,763	8,94
484,114	8,94
484,465	8,93
484,816	8,92
485,167	8,92
485,518	8,91
485,869	8,91
486,22	8,9
486,571	8,89
486,922	8,9
487,272	8,9
487,623	8,92
487,974	8,93
488,324	8,93
488,675	8,94
489,025	8,93
489,376	8,95
489,726	8,96
490,077	8,98
490,427	8,98
490,778	8,99
491,128	9
491,478	9,01
491,828	9,03
492,179	9,05
492,529	9,08
492,879	9,09
493,229	9,12
493,579	9,14
493,929	9,17
494,279	9,21
494,629	9,23
494,979	9,23
495,328	9,26
495,678	9,31
496,028	9,34
496,378	9,38
496,727	9,4
497,077	9,41
497,426	9,45
497,776	9,44
498,125	9,45
498,475	9,46
498,824	9,47
499,174	9,46
499,523	9,46
499,872	9,44
500,221	9,47
500,571	9,48
500,92	9,48
501,269	9,48
501,618	9,47
501,967	9,47
502,316	9,48
502,665	9,48
503,014	9,48
503,363	9,5
503,711	9,51
504,06	9,53
504,409	9,55
504,758	9,54
505,106	9,56
505,455	9,56
505,803	9,55
506,152	9,53
506,5	9,54
506,849	9,53
507,197	9,54
507,546	9,54
507,894	9,54
508,242	9,55
508,59	9,56
508,939	9,54
509,287	9,54
509,635	9,55
509,983	9,57
510,331	9,58
510,679	9,58
511,027	9,58
511,375	9,58
511,723	9,59
512,07	9,58
512,418	9,6
512,766	9,62
513,114	9,62
513,461	9,66
513,809	9,67
514,156	9,69
514,504	9,68
514,851	9,67
515,199	9,66
515,546	9,64
515,893	9,62
516,241	9,64
516,588	9,64
516,935	9,65
517,282	9,65
517,63	9,65
517,977	9,67
518,324	9,67
518,671	9,69
519,018	9,7
519,365	9,71
519,711	9,7
520,058	9,7
520,405	9,7
520,752	9,7
521,099	9,7
521,445	9,71
521,792	9,73
522,138	9,74
522,485	9,75
522,832	9,75
523,178	9,76
523,524	9,75
523,871	9,75
524,217	9,73
524,563	9,71
524,91	9,68
525,256	9,64
525,602	9,64
525,948	9,62
526,294	9,59
526,64	9,58
526,986	9,56
527,332	9,55
527,678	9,55
528,024	9,54
528,37	9,56
528,716	9,55
529,061	9,55
529,407	9,56
529,753	9,56
530,098	9,56
530,444	9,57
530,789	9,55
531,135	9,55
531,48	9,55
531,826	9,54
532,171	9,56
532,516	9,58
532,862	9,59
533,207	9,61
533,552	9,62
533,897	9,63
534,242	9,64
534,587	9,65
534,932	9,66
535,277	9,67
535,622	9,66
535,967	9,68
536,312	9,68
536,657	9,68
537,001	9,69
537,346	9,7
537,691	9,71
538,035	9,73
538,38	9,75
538,724	9,75
539,069	9,75
539,413	9,75
539,758	9,73
540,102	9,71
540,446	9,69
540,791	9,69
541,135	9,7
541,479	9,72
541,823	9,73
542,167	9,74
542,512	9,75
542,856	9,74
543,2	9,74
543,543	9,74
543,887	9,74
544,231	9,75
544,575	9,77
544,919	9,77
545,262	9,78
545,606	9,79
545,95	9,8
546,293	9,82
546,637	9,83
546,98	9,86
547,324	9,89
547,667	9,93
548,011	9,93
548,354	9,95
548,697	9,93
549,04	9,93
549,384	9,93
549,727	9,92
550,07	9,94
550,413	9,94
550,756	9,93
551,099	9,94
551,442	9,93
551,785	9,94
552,128	9,95
552,47	9,94
552,813	9,94
553,156	9,94
553,499	9,93
553,841	9,94
554,184	9,95
554,526	9,92
554,869	9,9
555,211	9,91
555,554	9,89
555,896	9,86
556,238	9,84
556,581	9,82
556,923	9,81
557,265	9,79
557,607	9,76
557,949	9,77
558,291	9,75
558,633	9,74
558,975	9,72
559,317	9,69
559,659	9,65
560,001	9,64
560,343	9,62
560,685	9,6
561,026	9,59
561,368	9,57
561,71	9,54
562,051	9,52
562,393	9,53
562,734	9,5
563,076	9,5
563,417	9,47
563,759	9,48
564,1	9,46
564,441	9,43
564,782	9,42
565,124	9,4
565,465	9,4
565,806	9,38
566,147	9,37
566,488	9,36
566,829	9,34
567,17	9,34
567,511	9,34
567,851	9,33
568,192	9,3
568,533	9,27
568,874	9,31
569,214	9,3
569,555	9,27
569,895	9,28
570,236	9,28
570,576	9,28
570,917	9,26
571,257	9,26
571,598	9,27
571,938	9,27
572,278	9,27
572,618	9,25
572,959	9,26
573,299	9,24
573,639	9,23
573,979	9,24
574,319	9,22
574,659	9,2
574,999	9,18
575,339	9,18
575,678	9,18
576,018	9,15
576,358	9,14
576,698	9,11
577,037	9,1
577,377	9,09
577,716	9,07
578,056	9,06
578,395	9,04
578,735	9,03
579,074	9,01
579,413	8,98
579,753	8,98
580,092	8,92
580,431	8,87
580,77	8,89
581,109	8,88
581,448	8,85
581,787	8,84
582,126	8,86
582,465	8,83
582,804	8,82
583,143	8,83
583,482	8,82
583,82	8,84
584,159	8,82
584,498	8,81
584,836	8,83
585,175	8,81
585,514	8,83
585,852	8,83
586,19	8,82
586,529	8,82
586,867	8,81
587,205	8,84
587,544	8,88
587,882	8,87
588,22	8,88
588,558	8,9
588,896	8,91
589,234	8,9
589,572	8,92
589,91	8,91
590,248	8,88
590,586	8,89
590,924	8,9
591,262	8,92
591,599	8,94
591,937	8,93
592,275	8,95
592,612	8,94
592,95	8,95
593,287	8,98
593,625	9
593,962	9,01
594,299	9,05
594,637	9,06
594,974	9,09
595,311	9,11
595,648	9,14
595,985	9,16
596,322	9,13
596,659	9,13
596,996	9,16
597,333	9,17
597,67	9,17
598,007	9,14
598,344	9,13
598,681	9,14
599,017	9,15
599,354	9,14
599,691	9,16
600,027	9,17
600,364	9,17
600,7	9,18
601,037	9,24
601,373	9,23
601,71	9,24
602,046	9,25
602,382	9,22
602,718	9,21
603,054	9,2
603,391	9,23
603,727	9,24
604,063	9,25
604,399	9,26
604,735	9,26
605,071	9,3
605,406	9,32
605,742	9,33
606,078	9,35
606,414	9,37
606,749	9,38
607,085	9,38
607,421	9,39
607,756	9,37
608,092	9,33
608,427	9,3
608,762	9,27
609,098	9,23
609,433	9,21
609,768	9,22
610,104	9,23
610,439	9,23
610,774	9,24
611,109	9,23
611,444	9,2
611,779	9,18
612,114	9,16
612,449	9,15
612,784	9,1
613,118	9,06
613,453	9,03
613,788	8,99
614,123	8,94
614,457	8,89
614,792	8,86
615,126	8,86
615,461	8,86
615,795	8,85
616,13	8,82
616,464	8,83
616,798	8,82
617,132	8,79
617,467	8,74
617,801	8,72
618,135	8,73
618,469	8,76
618,803	8,78
619,137	8,8
619,471	8,81
619,805	8,83
620,139	8,85
620,472	8,89
620,806	8,92
621,14	8,93
621,473	8,96
621,807	8,96
622,141	8,97
622,474	8,98
622,808	8,99
623,141	9,04
623,474	9,08
623,808	9,09
624,141	9,15
624,474	9,21
624,807	9,22
625,141	9,21
625,474	9,23
625,807	9,25
626,14	9,23
626,473	9,21
626,806	9,2
627,138	9,19
627,471	9,14
627,804	9,13
628,137	9,16
628,469	9,17
628,802	9,2
629,135	9,19
629,467	9,2
629,8	9,23
630,132	9,24
630,465	9,23
630,797	9,2
631,129	9,14
631,461	9,13
631,794	9,15
632,126	9,19
632,458	9,18
632,79	9,16
633,122	9,17
633,454	9,17
633,786	9,19
634,118	9,19
634,45	9,22
634,781	9,23
635,113	9,2
635,445	9,18
635,777	9,18
636,108	9,17
636,44	9,15
636,771	9,12
637,103	9,07
637,434	9,07
637,765	9,09
638,097	9,11
638,428	9,1
638,759	9,1
639,09	9,05
639,422	9,04
639,753	9,06
640,084	9,07
640,415	9,07
640,746	9,09
641,077	9,09
641,407	9,1
641,738	9,09
642,069	9,12
642,4	9,15
642,73	9,18
643,061	9,23
643,392	9,27
643,722	9,3
644,053	9,35
644,383	9,35
644,713	9,35
645,044	9,35
645,374	9,35
645,704	9,33
646,034	9,35
646,365	9,36
646,695	9,37
647,025	9,39
647,355	9,41
647,685	9,46
648,015	9,53
648,344	9,55
648,674	9,58
649,004	9,56
649,334	9,5
649,663	9,48
649,993	9,48
650,323	9,47
650,652	9,46
650,982	9,43
651,311	9,41
651,64	9,37
651,97	9,36
652,299	9,39
652,628	9,41
652,958	9,41
653,287	9,44
653,616	9,46
653,945	9,44
654,274	9,43
654,603	9,38
654,932	9,36
655,261	9,37
655,589	9,42
655,918	9,52
656,247	9,62
656,576	9,67
656,904	9,71
657,233	9,74
657,561	9,78
657,89	9,82
658,218	9,89
658,547	9,96
658,875	9,98
659,203	9,97
659,532	10,01
659,86	10,05
660,188	10,04
660,516	10,04
660,844	10,05
661,172	10,08
661,5	10,13
661,828	10,15
662,156	10,15
662,484	10,11
662,811	10,08
663,139	10,03
663,467	10,01
663,794	9,99
664,122	10,03
664,45	9,99
664,777	9,96
665,104	9,95
665,432	9,93
665,759	9,93
666,086	9,95
666,414	9,91
666,741	9,87
667,068	9,89
667,395	9,86
667,722	9,9
668,049	9,95
668,376	9,95
668,703	9,89
669,03	9,91
669,357	9,94
669,683	9,93
670,01	9,95
670,337	9,92
670,663	9,92
670,99	9,88
671,317	9,9
671,643	9,95
671,969	9,93
672,296	9,92
672,622	9,96
672,948	9,93
673,275	9,9
673,601	9,88
673,927	9,84
674,253	9,85
674,579	9,83
674,905	9,76
675,231	9,77
675,557	9,83
675,883	9,82
676,209	9,8
676,534	9,8
676,86	9,8
677,186	9,87
677,511	9,91
677,837	9,91
678,162	9,95
678,488	9,95
678,813	9,99
679,139	10,01
679,464	9,99
679,789	10,01
680,114	10,08
680,44	10,17
680,765	10,2
681,09	10,21
681,415	10,22
681,74	10,25
682,065	10,22
682,39	10,21
682,714	10,24
683,039	10,27
683,364	10,3
683,689	10,3
684,013	10,33
684,338	10,33
684,662	10,34
684,987	10,35
685,311	10,36
685,636	10,35
685,96	10,38
686,284	10,38
686,608	10,37
686,933	10,33
687,257	10,27
687,581	10,26
687,905	10,29
688,229	10,31
688,553	10,26
688,877	10,25
689,201	10,26
689,524	10,24
689,848	10,23
690,172	10,21
690,496	10,2
690,819	10,08
691,143	10,06
691,466	10,07
691,79	10,01
692,113	9,99
692,436	9,94
692,76	9,96
693,083	9,97
693,406	9,99
693,729	10,01
694,053	10,01
694,376	10,03
694,699	9,97
695,022	9,99
695,344	10,08
695,667	10,15
695,99	10,22
696,313	10,31
696,636	10,37
696,958	10,44
697,281	10,55
697,604	10,64
697,926	10,68
698,249	10,7
698,571	10,72
698,893	10,74
699,216	10,78
699,538	10,79
699,86	10,82
700,182	10,88
700,504	10,92
700,827	10,96
701,149	10,96
701,471	10,97
701,793	10,91
702,114	10,88
702,436	10,85
702,758	10,78
703,08	10,67
703,401	10,64
703,723	10,57
704,045	10,44
704,366	10,39
704,688	10,36
705,009	10,31
705,331	10,35
705,652	10,35
705,973	10,33
706,294	10,29
706,616	10,27
706,937	10,24
707,258	10,17
707,579	10,16
707,9	10,15
708,221	10,21
708,542	10,37
708,863	10,43
709,183	10,44
709,504	10,43
709,825	10,45
710,145	10,4
710,466	10,42
710,787	10,48
711,107	10,47
711,427	10,49
711,748	10,51
712,068	10,56
712,388	10,6
712,709	10,66
713,029	10,7
713,349	10,71
713,669	10,71
713,989	10,75
714,309	10,76
714,629	10,8
714,949	10,82
715,269	10,75
715,589	10,76
715,908	10,8
716,228	10,81
716,548	10,87
716,867	10,91
717,187	10,91
717,506	10,95
717,826	11,01
718,145	11,09
718,465	11,18
718,784	11,18
719,103	11,23
719,422	11,26
719,741	11,41
720,061	11,47
720,38	11,61
720,699	11,7
721,018	11,79
721,336	11,9
721,655	12,02
721,974	12,19
722,293	12,23
722,612	12,35
722,93	12,53
723,249	12,7
723,567	12,86
723,886	13,04
724,204	13,14
724,523	13,24
724,841	13,33
725,159	13,45
725,477	13,6
725,796	13,71
726,114	13,86
726,432	13,93
726,75	14,05
727,068	14,14
727,386	14,28
727,704	14,52
728,022	14,71
728,339	14,88
728,657	15,02
728,975	15,2
729,292	15,32
729,61	15,41
729,928	15,46
730,245	15,62
730,562	15,75
730,88	15,91
731,197	16,08
731,514	16,12
731,832	16,14
732,149	16,19
732,466	16,28
732,783	16,34
733,1	16,38
733,417	16,5
733,734	16,68
734,051	16,78
734,368	16,71
734,684	16,72
735,001	16,75
735,318	16,82
735,634	16,87
735,951	16,9
736,268	16,92
736,584	16,99
736,9	17,01
737,217	17,02
737,533	16,98
737,849	17,01
738,166	17,16
738,482	17,37
738,798	17,54
739,114	17,64
739,43	17,82
739,746	17,98
740,062	18,08
740,378	18,11
740,693	18,14
741,009	18,42
741,325	18,6
741,641	18,7
741,956	18,76
742,272	18,94
742,587	19,15
742,903	19,38
743,218	19,44
743,533	19,58
743,849	19,66
744,164	19,82
744,479	20
744,794	20,15
745,109	20,28
745,424	20,32
745,739	20,37
746,054	20,32
746,369	20,3
746,684	20,32
746,999	20,39
747,313	20,51
747,628	20,42
747,943	20,38
748,257	20,46
748,572	20,64
748,886	20,71
749,201	20,69
749,515	20,62
749,829	20,75
750,144	20,8
750,458	20,87
750,772	20,94
751,086	20,97
751,4	20,95
751,714	20,83
752,028	20,86
752,342	20,86
752,656	20,96
752,97	21,05
753,284	21,16
753,597	21,22
753,911	21,25
754,225	21,38
754,538	21,46
754,852	21,5
755,165	21,56
755,478	21,66
755,792	21,83
756,105	21,99
756,418	22,12
756,731	22,19
757,045	22,22
757,358	22,29
757,671	22,35
757,984	22,42
758,297	22,53
758,609	22,66
758,922	22,74
759,235	22,86
759,548	22,84
759,86	22,64
760,173	22,46
760,486	22,29
760,798	22,14
761,111	21,96
761,423	21,86
761,735	21,67
762,048	21,6
762,36	21,51
762,672	21,51
762,984	21,46
763,296	21,47
763,608	21,51
763,92	21,55
764,232	21,57
764,544	21,67
764,856	21,83
765,168	21,88
765,48	21,97
765,791	22,01
766,103	22,29
766,414	22,66
766,726	22,95
767,037	23,32
767,349	23,7
767,66	24,16
767,972	24,66
768,283	25,15
768,594	25,45
768,905	25,75
769,216	26,1
769,527	26,42
769,838	26,75
770,149	27,15
770,46	27,58
770,771	27,99
771,082	28,22
771,393	28,33
771,703	28,66
772,014	29,05
772,324	29,34
772,635	29,35
772,945	29,42
773,256	29,73
773,566	29,9
773,877	30,06
774,187	30,05
774,497	29,99
774,807	29,98
775,117	30,01
775,427	30,18
775,737	30,13
776,047	30,22
776,357	30,22
776,667	30,05
776,977	30,11
777,287	30,29
777,596	30,43
777,906	30,64
778,216	30,64
778,525	30,6
778,835	30,5
779,144	30,72
779,453	30,78
779,763	30,76
780,072	30,82
780,381	30,97
780,69	31,24
781	31,37
781,309	31,47
781,618	31,58
781,927	31,73
782,235	31,92
782,544	32,09
782,853	32,35
783,162	32,7
783,471	32,59
783,779	32,3
784,088	32,24
784,396	32
784,705	31,95
785,013	32,02
785,322	32,19
785,63	31,99
785,938	31,83
786,246	31,66
786,554	31,56
786,863	31,41
787,171	31,26
787,479	31,24
787,787	31,45
788,094	31,57
788,402	31,49
788,71	31,83
789,018	31,97
789,326	31,91
789,633	31,84
789,941	31,89
790,248	32,01
790,556	32,19
790,863	32,46
791,171	32,62
791,478	32,53
791,785	32,52
792,092	32,55
792,399	32,77
792,707	32,95
793,014	33,11
793,321	33,25
793,628	33,54
793,934	33,68
794,241	33,59
794,548	33,6
794,855	33,79
795,161	33,72
795,468	33,43
795,775	33,32
796,081	33,43
796,388	33,58
796,694	33,67
797	33,43
797,307	33,44
797,613	33,37
797,919	33,47
798,225	33,72
798,531	33,88
798,837	33,98
799,143	34,19
799,449	34,39
799,755	34,55
800,061	34,61
800,367	34,85
800,672	35,2
800,978	35,48
801,284	35,58
801,589	35,42
801,895	35,7
802,2	36,04
802,506	36,11
802,811	36,04
803,116	36,19
803,421	36,43
803,727	36,49
804,032	36,59
804,337	36,48
804,642	36,29
804,947	36,46
805,252	36,46
805,556	36,35
805,861	36,42
806,166	36,23
806,471	36,26
806,775	36,14
807,08	36,16
807,384	36,2
807,689	36,4
807,993	36,75
808,298	37,2
808,602	37,52
808,906	37,84
809,211	38,32
809,515	38,72
809,819	39,07
810,123	39,25
810,427	39,59
810,731	39,98
811,035	40,31
811,338	40,32
811,642	40,38
811,946	40,49
812,25	40,67
812,553	41,04
812,857	41,14
813,16	41,36
813,464	41,28
813,767	41,32
814,07	41,06
814,374	40,92
814,677	40,54
814,98	40,28
815,283	40,07
815,586	39,22
815,889	38,23
816,192	37,76
816,495	37,52
816,798	37,18
817,101	36,94
817,404	36,6
817,706	36,33
818,009	36,05
818,312	35,31
818,614	33,9
818,917	32,02
819,219	29,89
819,521	27,92
819,824	26,5
820,126	25,28
820,428	24,4
820,73	23,86
821,032	23,41
821,334	23,03
821,636	22,76
821,938	22,71
822,24	22,7
822,542	22,66
822,844	22,6
823,145	22,53
823,447	22,41
823,749	22,3
824,05	22,23
824,352	22,17
824,653	22,19
824,955	22,2
825,256	22,34
825,557	22,56
825,858	22,86
826,16	23,22
826,461	23,71
826,762	24,28
827,063	24,82
827,364	25,34
827,665	25,89
827,965	26,35
828,266	26,81
828,567	27,26
828,868	27,62
829,168	27,94
829,469	28,21
829,769	28,55
830,07	28,96
830,37	29,26
830,67	29,5
830,971	29,75
831,271	30,14
831,571	30,47
831,871	30,73
832,171	30,92
832,471	30,89
832,771	30,89
833,071	30,88
833,371	30,71
833,671	30,79
833,971	30,99
834,27	31,26
834,57	31,41
834,869	31,53
835,169	31,58
835,468	31,75
835,768	31,9
836,067	32,17
836,367	32,32
836,666	32,74
836,965	33,39
837,264	33,93
837,563	34,64
837,862	35,62
838,161	36,53
838,46	37,23
838,759	38,03
839,058	38,83
839,356	39,8
839,655	40,75
839,954	41,34
840,252	42,02
840,551	42,39
840,849	42,64
841,148	43,01
841,446	43,42
841,744	43,64
842,043	44,24
842,341	44,67
842,639	45,05
842,937	45,31
843,235	45,83
843,533	46,46
843,831	47,46
844,129	48,22
844,427	48,98
844,724	50,16
845,022	51,33
845,32	52,83
845,617	53,66
845,915	54,56
846,212	55,88
846,51	57,19
846,807	58,07
847,104	58,81
847,402	59,51
847,699	60,41
847,996	61,05
848,293	61,44
848,59	61,61
848,887	61,93
849,184	62,48
849,481	62,45
849,778	63,02
850,074	62,91
850,371	62,66
850,668	63,22
850,964	63,63
851,261	63,66
851,557	63,09
851,854	63,05
852,15	62,73
852,446	62,69
852,743	62,4
853,039	63,16
853,335	63,9
853,631	63,94
853,927	63,06
854,223	62,59
854,519	62,45
854,815	62,74
855,111	63,28
855,406	63,39
855,702	64,06
855,998	64,57
856,293	65,38
856,589	66,37
856,884	67,13
857,18	68,11
857,475	68,54
857,77	68,86
858,066	69,25
858,361	68,65
858,656	68,24
858,951	67,33
859,246	66,26
859,541	66,02
859,836	66,24
860,131	67,05
860,426	67,23
860,72	66,81
861,015	66,11
861,31	65,63
861,604	65,45
861,899	65,34
862,193	65,16
862,487	64,75
862,782	63,92
863,076	62,98
863,37	61,81
863,664	61,1
863,959	60,37
864,253	59,65
864,547	60,72
864,841	61,64
865,135	62,48
865,428	63,4
865,722	63,16
866,016	62,89
866,31	63,02
866,603	63,29
866,897	63,6
867,19	64,21
867,484	64,27
867,777	64,09
868,07	63,8
868,364	63,91
868,657	63,99
868,95	64,11
869,243	64,97
869,536	65,84
869,829	66,18
870,122	66,69
870,415	66,77
870,708	66,81
871	66,59
871,293	66,3
871,586	66,07
871,878	66,35
872,171	66,44
872,463	65,57
872,756	65,17
873,048	65,07
873,341	64,75
873,633	64,87
873,925	65,23
874,217	65,08
874,509	64,22
874,801	63,48
875,093	63,32
875,385	62,47
875,677	61,39
875,969	61,56
