Data from zc74051_1_Reflection_00001.txt Node
Date: Thu Mar 12 15:03:15 ART 2020
User: Ana
Spectrometer: USB2E3644
Trigger mode: 4
Integration Time (sec): 5,000000E-2
Scans to average: 10
Electric dark correction enabled: true
Nonlinearity correction enabled: false
Boxcar width: 10
XAxis mode: Wavelengths
Number of Pixels in Spectrum: 2048
>>>>>Begin Spectral Data<<<<<
178,315	126,19
178,696	145,95
179,076	172,88
179,457	173,87
179,838	175
180,218	278,79
180,599	-591,67
180,979	242,11
181,36	236,67
181,74	143,94
182,121	136,67
182,501	112,95
182,881	107,71
183,262	106,2
183,642	106,18
184,022	105,52
184,402	104,53
184,783	103,03
185,163	101,95
185,543	104,58
185,923	107,41
186,303	111
186,683	117,15
187,063	120,65
187,443	120,68
187,823	119,81
188,203	119,46
188,583	119,4
188,963	117
189,343	115,24
189,723	115,71
190,102	115,58
190,482	114,52
190,862	113,88
191,242	113,08
191,621	113,1
192,001	113,91
192,38	114,28
192,76	115,35
193,14	116,02
193,519	116,42
193,898	116,15
194,278	114,8
194,657	112,17
195,037	111,1
195,416	110,6
195,795	110,54
196,175	111,12
196,554	110,63
196,933	110,54
197,312	111,87
197,692	112,51
198,071	113,14
198,45	114,82
198,829	116,68
199,208	118,57
199,587	119,95
199,966	121,41
200,345	122,78
200,724	123,45
201,103	123,62
201,482	122,76
201,86	122,38
202,239	122,14
202,618	122,85
202,997	123,64
203,375	124,26
203,754	124,61
204,133	125,07
204,511	125,26
204,89	125,38
205,269	124,16
205,647	122,44
206,026	120,74
206,404	119,28
206,782	117,81
207,161	116,7
207,539	115,37
207,918	114,24
208,296	113,48
208,674	113,09
209,052	113,5
209,431	114,42
209,809	114,71
210,187	115,44
210,565	115,69
210,943	115
211,321	114,63
211,699	114,8
212,077	114,59
212,455	115,08
212,833	115,67
213,211	116,29
213,589	117,47
213,967	119,34
214,345	120,24
214,722	120,16
215,1	119,9
215,478	120,77
215,855	121,37
216,233	121,99
216,611	122,75
216,988	122,97
217,366	122,43
217,743	122,01
218,121	120,59
218,498	119,29
218,876	118,57
219,253	117,5
219,631	115,62
220,008	114,9
220,385	114,1
220,762	113,65
221,14	113,64
221,517	113,63
221,894	112,71
222,271	112,18
222,648	112,1
223,025	112,13
223,402	111,9
223,78	111,27
224,157	110,07
224,533	109,73
224,91	110,09
225,287	111,71
225,664	114,02
226,041	117,53
226,418	120,48
226,795	121,73
227,171	122,08
227,548	122,47
227,925	122,15
228,301	122,29
228,678	121,14
229,055	120,57
229,431	120,82
229,808	121,39
230,184	122,15
230,561	123,95
230,937	125
231,313	125,55
231,69	126,96
232,066	130,38
232,442	132,84
232,819	134,44
233,195	134,67
233,571	134,88
233,947	133,99
234,323	134,03
234,699	136,03
235,075	138,91
235,451	142,74
235,827	147,31
236,203	151,6
236,579	157,75
236,955	162,76
237,331	166,65
237,707	172,73
238,083	182,03
238,459	192,89
238,834	210,14
239,21	234,37
239,586	262,52
239,961	285,2
240,337	301,64
240,713	312,9
241,088	325,96
241,464	338,68
241,839	356,79
242,215	388,28
242,59	474,4
242,965	834,24
243,341	-4469,35
243,716	-551,61
244,091	-315,55
244,467	-236,18
244,842	-193,81
245,217	-165,75
245,592	-151,22
245,967	-146,75
246,343	-140,71
246,718	-136,35
247,093	-138,22
247,468	-142,21
247,843	-141,05
248,218	-134,4
248,593	-122,74
248,967	-112,51
249,342	-106,39
249,717	-102,67
250,092	-100,19
250,467	-102,12
250,841	-110,77
251,216	-129,33
251,591	-159,54
251,965	-194,4
252,34	-229,45
252,714	-275,77
253,089	-334,37
253,463	-382,19
253,838	-389,1
254,212	-381,96
254,587	-349,1
254,961	-283,4
255,335	-221,22
255,71	-169,84
256,084	-123,18
256,458	-94,55
256,832	-78,55
257,206	-69,95
257,581	-65,24
257,955	-62,35
258,329	-59,76
258,703	-56,69
259,077	-54,28
259,451	-52,01
259,825	-50,98
260,199	-50,72
260,572	-49,51
260,946	-48,89
261,32	-48,47
261,694	-47,65
262,068	-47,39
262,441	-47,1
262,815	-47,49
263,189	-47,41
263,562	-48,03
263,936	-51,29
264,309	-57,02
264,683	-63,1
265,056	-66,46
265,43	-67,48
265,803	-66,93
266,176	-65,37
266,55	-64,53
266,923	-63,56
267,296	-61,79
267,67	-58,93
268,043	-56,43
268,416	-53,62
268,789	-50,04
269,162	-46,29
269,535	-43,31
269,908	-40,97
270,281	-39,69
270,654	-39,35
271,027	-39,94
271,4	-40,47
271,773	-40,72
272,146	-40,57
272,519	-40,43
272,891	-40,59
273,264	-40,82
273,637	-40,7
274,01	-40,38
274,382	-40,93
274,755	-41,18
275,127	-41,54
275,5	-41,81
275,872	-41,66
276,245	-41,67
276,617	-42,6
276,99	-43,8
277,362	-45,09
277,734	-45,68
278,107	-45,64
278,479	-44,76
278,851	-43,42
279,223	-42,48
279,596	-41,77
279,968	-41,27
280,34	-40,6
280,712	-39,58
281,084	-38,15
281,456	-36,78
281,828	-35,32
282,2	-33,02
282,572	-31,25
282,944	-29,99
283,315	-29,25
283,687	-28,52
284,059	-28,13
284,431	-27,71
284,802	-27,01
285,174	-26,44
285,546	-25,99
285,917	-25,23
286,289	-24,59
286,66	-24,14
287,032	-23,67
287,403	-23,25
287,775	-22,95
288,146	-22,96
288,518	-23,07
288,889	-23,02
289,26	-23,13
289,632	-23,73
290,003	-24,5
290,374	-24,99
290,745	-25,23
291,116	-25,13
291,487	-25,16
291,858	-24,85
292,229	-24,39
292,6	-23,98
292,971	-22,89
293,342	-21,82
293,713	-20,98
294,084	-20,22
294,455	-19,46
294,826	-18,95
295,196	-18,77
295,567	-18,71
295,938	-18,35
296,308	-17,94
296,679	-17,6
297,05	-17,18
297,42	-16,6
297,791	-15,97
298,161	-15,58
298,532	-15,11
298,902	-14,8
299,272	-14,52
299,643	-14,42
300,013	-14,19
300,383	-14,02
300,754	-14,27
301,124	-14,62
301,494	-14,99
301,864	-15,3
302,234	-15,62
302,604	-15,83
302,974	-15,95
303,344	-15,84
303,714	-15,65
304,084	-15,4
304,454	-15,3
304,824	-15,08
305,194	-14,96
305,563	-14,97
305,933	-14,77
306,303	-14,52
306,673	-14,04
307,042	-13,38
307,412	-12,7
307,781	-12,03
308,151	-11,58
308,521	-11,19
308,89	-10,82
309,259	-10,73
309,629	-10,74
309,998	-10,62
310,368	-10,46
310,737	-10,13
311,106	-9,87
311,475	-9,69
311,845	-9,63
312,214	-9,48
312,583	-9,41
312,952	-9,38
313,321	-9,31
313,69	-9,03
314,059	-8,94
314,428	-9,15
314,797	-9,52
315,166	-9,95
315,535	-10,47
315,904	-11
316,272	-11,5
316,641	-11,85
317,01	-11,84
317,379	-11,7
317,747	-11,5
318,116	-11,24
318,484	-11,15
318,853	-11,1
319,221	-11,06
319,59	-11,09
319,958	-10,99
320,327	-10,76
320,695	-10,44
321,063	-10,12
321,432	-10,08
321,8	-9,84
322,168	-9,57
322,536	-9,43
322,905	-8,94
323,273	-8,43
323,641	-7,91
324,009	-7,4
324,377	-7,05
324,745	-6,75
325,113	-6,39
325,481	-6,09
325,849	-5,86
326,216	-5,62
326,584	-5,37
326,952	-5,16
327,32	-4,77
327,687	-4,5
328,055	-4,34
328,423	-4,25
328,79	-4,22
329,158	-4,18
329,525	-4,22
329,893	-4,16
330,26	-3,93
330,628	-3,84
330,995	-3,74
331,362	-3,7
331,73	-3,68
332,097	-3,53
332,464	-3,36
332,831	-3,19
333,199	-3,1
333,566	-2,98
333,933	-2,77
334,3	-2,56
334,667	-2,45
335,034	-2,46
335,401	-2,48
335,768	-2,38
336,135	-2,18
336,502	-1,98
336,868	-1,73
337,235	-1,53
337,602	-1,33
337,969	-1,13
338,335	-1,01
338,702	-0,88
339,069	-0,73
339,435	-0,67
339,802	-0,55
340,168	-0,54
340,535	-0,5
340,901	-0,49
341,267	-0,46
341,634	-0,37
342	-0,27
342,366	-0,08
342,733	0,11
343,099	0,35
343,465	0,49
343,831	0,59
344,197	0,71
344,563	0,78
344,929	0,85
345,295	0,98
345,661	1,16
346,027	1,29
346,393	1,32
346,759	1,43
347,125	1,62
347,491	1,75
347,856	1,88
348,222	1,97
348,588	2,16
348,953	2,38
349,319	2,41
349,684	2,46
350,05	2,49
350,415	2,53
350,781	2,52
351,146	2,58
351,512	2,65
351,877	2,67
352,242	2,65
352,608	2,66
352,973	2,69
353,338	2,71
353,703	2,77
354,068	2,86
354,433	2,92
354,798	2,94
355,164	2,98
355,528	3,04
355,893	3,11
356,258	3,12
356,623	3,15
356,988	3,3
357,353	3,43
357,718	3,52
358,082	3,59
358,447	3,68
358,812	3,82
359,176	3,93
359,541	4,06
359,905	4,2
360,27	4,33
360,634	4,45
360,999	4,57
361,363	4,66
361,728	4,77
362,092	4,87
362,456	4,95
362,821	5,05
363,185	5,15
363,549	5,22
363,913	5,24
364,277	5,27
364,641	5,23
365,005	5,24
365,369	5,28
365,733	5,38
366,097	5,47
366,461	5,51
366,825	5,56
367,189	5,57
367,553	5,62
367,916	5,75
368,28	5,86
368,644	5,95
369,007	6,04
369,371	6,15
369,734	6,24
370,098	6,32
370,461	6,41
370,825	6,51
371,188	6,61
371,552	6,71
371,915	6,75
372,278	6,9
372,642	7
373,005	7,12
373,368	7,26
373,731	7,37
374,094	7,47
374,457	7,58
374,82	7,76
375,183	7,9
375,546	7,97
375,909	8
376,272	8,07
376,635	8,14
376,998	8,17
377,361	8,2
377,723	8,28
378,086	8,34
378,449	8,38
378,811	8,44
379,174	8,54
379,537	8,67
379,899	8,72
380,262	8,76
380,624	8,78
380,987	8,81
381,349	8,87
381,711	8,91
382,074	8,93
382,436	8,98
382,798	9,1
383,16	9,16
383,522	9,19
383,884	9,21
384,247	9,25
384,609	9,31
384,971	9,36
385,333	9,39
385,695	9,43
386,056	9,47
386,418	9,53
386,78	9,57
387,142	9,61
387,504	9,7
387,865	9,79
388,227	9,84
388,589	9,87
388,95	9,89
389,312	9,89
389,673	9,97
390,035	9,96
390,396	9,98
390,758	10,02
391,119	10,07
391,48	10,13
391,842	10,18
392,203	10,22
392,564	10,27
392,925	10,35
393,286	10,38
393,648	10,42
394,009	10,44
394,37	10,46
394,731	10,5
395,092	10,47
395,452	10,49
395,813	10,56
396,174	10,6
396,535	10,63
396,896	10,66
397,257	10,7
397,617	10,75
397,978	10,74
398,338	10,76
398,699	10,78
399,06	10,82
399,42	10,82
399,781	10,83
400,141	10,84
400,501	10,83
400,862	10,86
401,222	10,87
401,582	10,87
401,943	10,89
402,303	10,88
402,663	10,91
403,023	10,91
403,383	10,9
403,743	10,9
404,103	10,92
404,463	10,94
404,823	10,98
405,183	11,01
405,543	11,05
405,903	11,06
406,262	11,12
406,622	11,12
406,982	11,12
407,342	11,15
407,701	11,18
408,061	11,18
408,42	11,19
408,78	11,2
409,139	11,21
409,499	11,22
409,858	11,25
410,217	11,3
410,577	11,32
410,936	11,34
411,295	11,34
411,655	11,31
412,014	11,3
412,373	11,26
412,732	11,21
413,091	11,19
413,45	11,19
413,809	11,11
414,168	11,06
414,527	11,03
414,886	10,99
415,245	10,96
415,603	10,92
415,962	10,89
416,321	10,88
416,679	10,84
417,038	10,81
417,397	10,77
417,755	10,71
418,114	10,68
418,472	10,66
418,831	10,64
419,189	10,65
419,547	10,63
419,906	10,62
420,264	10,61
420,622	10,58
420,981	10,56
421,339	10,57
421,697	10,57
422,055	10,57
422,413	10,59
422,771	10,62
423,129	10,65
423,487	10,67
423,845	10,68
424,203	10,72
424,56	10,75
424,918	10,79
425,276	10,84
425,634	10,88
425,991	10,91
426,349	10,95
426,707	10,99
427,064	11,03
427,422	11,05
427,779	11,08
428,137	11,13
428,494	11,19
428,851	11,22
429,209	11,25
429,566	11,26
429,923	11,25
430,28	11,23
430,637	11,24
430,995	11,22
431,352	11,22
431,709	11,21
432,066	11,21
432,423	11,21
432,78	11,21
433,137	11,19
433,493	11,16
433,85	11,18
434,207	11,17
434,564	11,15
434,92	11,14
435,277	11,14
435,634	11,15
435,99	11,12
436,347	11,12
436,703	11,16
437,06	11,15
437,416	11,16
437,773	11,16
438,129	11,12
438,485	11,16
438,841	11,13
439,198	11,16
439,554	11,15
439,91	11,15
440,266	11,14
440,622	11,15
440,978	11,18
441,334	11,15
441,69	11,14
442,046	11,13
442,402	11,13
442,758	11,13
443,113	11,11
443,469	11,11
443,825	11,09
444,181	11,08
444,536	11,1
444,892	11,1
445,247	11,11
445,603	11,13
445,958	11,11
446,314	11,14
446,669	11,13
447,025	11,14
447,38	11,15
447,735	11,16
448,09	11,17
448,446	11,18
448,801	11,18
449,156	11,21
449,511	11,26
449,866	11,27
450,221	11,3
450,576	11,33
450,931	11,36
451,286	11,4
451,641	11,43
451,995	11,44
452,35	11,47
452,705	11,48
453,06	11,5
453,414	11,52
453,769	11,52
454,123	11,52
454,478	11,51
454,832	11,51
455,187	11,49
455,541	11,48
455,896	11,46
456,25	11,44
456,604	11,42
456,958	11,41
457,313	11,4
457,667	11,38
458,021	11,38
458,375	11,39
458,729	11,42
459,083	11,43
459,437	11,44
459,791	11,42
460,145	11,44
460,499	11,43
460,852	11,42
461,206	11,43
461,56	11,43
461,914	11,44
462,267	11,44
462,621	11,45
462,974	11,47
463,328	11,47
463,681	11,49
464,035	11,51
464,388	11,5
464,742	11,53
465,095	11,57
465,448	11,59
465,801	11,56
466,155	11,53
466,508	11,53
466,861	11,51
467,214	11,52
467,567	11,51
467,92	11,54
468,273	11,54
468,626	11,54
468,979	11,53
469,332	11,55
469,684	11,55
470,037	11,56
470,39	11,55
470,743	11,58
471,095	11,59
471,448	11,6
471,8	11,61
472,153	11,63
472,505	11,63
472,858	11,63
473,21	11,66
473,562	11,67
473,915	11,67
474,267	11,69
474,619	11,69
474,971	11,68
475,324	11,67
475,676	11,69
476,028	11,68
476,38	11,7
476,732	11,7
477,084	11,69
477,436	11,7
477,787	11,71
478,139	11,69
478,491	11,69
478,843	11,67
479,195	11,68
479,546	11,64
479,898	11,56
480,249	11,54
480,601	11,51
480,952	11,49
481,304	11,48
481,655	11,47
482,007	11,45
482,358	11,43
482,709	11,42
483,061	11,4
483,412	11,39
483,763	11,38
484,114	11,36
484,465	11,36
484,816	11,34
485,167	11,33
485,518	11,33
485,869	11,33
486,22	11,33
486,571	11,32
486,922	11,34
487,272	11,35
487,623	11,35
487,974	11,34
488,324	11,34
488,675	11,34
489,025	11,34
489,376	11,36
489,726	11,37
490,077	11,38
490,427	11,39
490,778	11,41
491,128	11,42
491,478	11,44
491,828	11,47
492,179	11,5
492,529	11,51
492,879	11,52
493,229	11,53
493,579	11,53
493,929	11,54
494,279	11,55
494,629	11,59
494,979	11,59
495,328	11,64
495,678	11,66
496,028	11,69
496,378	11,71
496,727	11,72
497,077	11,73
497,426	11,76
497,776	11,78
498,125	11,78
498,475	11,79
498,824	11,79
499,174	11,77
499,523	11,78
499,872	11,8
500,221	11,82
500,571	11,85
500,92	11,87
501,269	11,87
501,618	11,86
501,967	11,85
502,316	11,87
502,665	11,86
503,014	11,87
503,363	11,87
503,711	11,88
504,06	11,86
504,409	11,86
504,758	11,85
505,106	11,83
505,455	11,83
505,803	11,81
506,152	11,8
506,5	11,83
506,849	11,84
507,197	11,83
507,546	11,82
507,894	11,83
508,242	11,82
508,59	11,81
508,939	11,81
509,287	11,8
509,635	11,81
509,983	11,83
510,331	11,84
510,679	11,84
511,027	11,86
511,375	11,86
511,723	11,86
512,07	11,86
512,418	11,89
512,766	11,9
513,114	11,94
513,461	11,97
513,809	11,97
514,156	11,95
514,504	11,96
514,851	11,93
515,199	11,89
515,546	11,89
515,893	11,9
516,241	11,91
516,588	11,92
516,935	11,92
517,282	11,91
517,63	11,93
517,977	11,94
518,324	11,95
518,671	11,97
519,018	11,98
519,365	12
519,711	12
520,058	12,01
520,405	12,01
520,752	11,99
521,099	12
521,445	12,02
521,792	12,01
522,138	12,02
522,485	12,03
522,832	12,04
523,178	12,04
523,524	12,04
523,871	12,05
524,217	12,06
524,563	12,04
524,91	11,98
525,256	11,96
525,602	11,95
525,948	11,96
526,294	11,95
526,64	11,93
526,986	11,91
527,332	11,9
527,678	11,89
528,024	11,89
528,37	11,89
528,716	11,89
529,061	11,9
529,407	11,9
529,753	11,9
530,098	11,9
530,444	11,9
530,789	11,9
531,135	11,89
531,48	11,87
531,826	11,88
532,171	11,9
532,516	11,9
532,862	11,9
533,207	11,89
533,552	11,89
533,897	11,91
534,242	11,93
534,587	11,94
534,932	11,97
535,277	11,98
535,622	11,98
535,967	11,98
536,312	11,99
536,657	12,01
537,001	12,03
537,346	12,05
537,691	12,05
538,035	12,05
538,38	12,05
538,724	12,07
539,069	12,08
539,413	12,09
539,758	12,09
540,102	12,1
540,446	12,09
540,791	12,1
541,135	12,09
541,479	12,09
541,823	12,09
542,167	12,07
542,512	12,09
542,856	12,07
543,2	12,06
543,543	12,06
543,887	12,07
544,231	12,07
544,575	12,07
544,919	12,09
545,262	12,11
545,606	12,12
545,95	12,13
546,293	12,14
546,637	12,14
546,98	12,15
547,324	12,14
547,667	12,17
548,011	12,2
548,354	12,21
548,697	12,21
549,04	12,2
549,384	12,2
549,727	12,16
550,07	12,18
550,413	12,18
550,756	12,18
551,099	12,15
551,442	12,13
551,785	12,14
552,128	12,11
552,47	12,11
552,813	12,11
553,156	12,1
553,499	12,1
553,841	12,09
554,184	12,11
554,526	12,1
554,869	12,06
555,211	12,05
555,554	12,05
555,896	12,03
556,238	12,03
556,581	12,02
556,923	12
557,265	11,97
557,607	11,96
557,949	11,96
558,291	11,93
558,633	11,93
558,975	11,93
559,317	11,93
559,659	11,9
560,001	11,87
560,343	11,84
560,685	11,8
561,026	11,79
561,368	11,72
561,71	11,73
562,051	11,71
562,393	11,7
562,734	11,65
563,076	11,65
563,417	11,64
563,759	11,64
564,1	11,63
564,441	11,62
564,782	11,61
565,124	11,59
565,465	11,61
565,806	11,58
566,147	11,55
566,488	11,52
566,829	11,52
567,17	11,51
567,511	11,49
567,851	11,48
568,192	11,46
568,533	11,47
568,874	11,45
569,214	11,49
569,555	11,46
569,895	11,46
570,236	11,43
570,576	11,38
570,917	11,36
571,257	11,35
571,598	11,33
571,938	11,33
572,278	11,33
572,618	11,3
572,959	11,31
573,299	11,31
573,639	11,29
573,979	11,27
574,319	11,27
574,659	11,27
574,999	11,26
575,339	11,25
575,678	11,26
576,018	11,25
576,358	11,2
576,698	11,17
577,037	11,14
577,377	11,14
577,716	11,14
578,056	11,12
578,395	11,11
578,735	11,09
579,074	11,04
579,413	11,02
579,753	10,99
580,092	10,94
580,431	10,91
580,77	10,91
581,109	10,88
581,448	10,84
581,787	10,83
582,126	10,82
582,465	10,79
582,804	10,74
583,143	10,71
583,482	10,69
583,82	10,7
584,159	10,72
584,498	10,71
584,836	10,72
585,175	10,74
585,514	10,74
585,852	10,74
586,19	10,75
586,529	10,72
586,867	10,73
587,205	10,77
587,544	10,77
587,882	10,77
588,22	10,8
588,558	10,8
588,896	10,81
589,234	10,77
589,572	10,78
589,91	10,78
590,248	10,75
590,586	10,78
590,924	10,75
591,262	10,74
591,599	10,76
591,937	10,76
592,275	10,74
592,612	10,74
592,95	10,75
593,287	10,77
593,625	10,79
593,962	10,81
594,299	10,82
594,637	10,84
594,974	10,88
595,311	10,88
595,648	10,9
595,985	10,9
596,322	10,92
596,659	10,91
596,996	10,92
597,333	10,92
597,67	10,89
598,007	10,88
598,344	10,87
598,681	10,86
599,017	10,87
599,354	10,87
599,691	10,87
600,027	10,89
600,364	10,86
600,7	10,92
601,037	10,92
601,373	10,95
601,71	10,96
602,046	10,95
602,382	10,97
602,718	10,99
603,054	11
603,391	11
603,727	11,02
604,063	11,02
604,399	11,05
604,735	11,1
605,071	11,11
605,406	11,12
605,742	11,12
606,078	11,12
606,414	11,15
606,749	11,17
607,085	11,17
607,421	11,19
607,756	11,16
608,092	11,16
608,427	11,12
608,762	11,11
609,098	11,1
609,433	11,08
609,768	11,05
610,104	11,03
610,439	11,02
610,774	11,02
611,109	11,02
611,444	11
611,779	10,97
612,114	10,98
612,449	10,98
612,784	10,96
613,118	10,92
613,453	10,87
613,788	10,82
614,123	10,78
614,457	10,73
614,792	10,67
615,126	10,64
615,461	10,61
615,795	10,61
616,13	10,57
616,464	10,55
616,798	10,51
617,132	10,49
617,467	10,47
617,801	10,46
618,135	10,47
618,469	10,49
618,803	10,48
619,137	10,46
619,471	10,45
619,805	10,48
620,139	10,51
620,472	10,55
620,806	10,57
621,14	10,58
621,473	10,6
621,807	10,6
622,141	10,6
622,474	10,6
622,808	10,58
623,141	10,6
623,474	10,63
623,808	10,68
624,141	10,75
624,474	10,82
624,807	10,86
625,141	10,85
625,474	10,87
625,807	10,9
626,14	10,93
626,473	10,94
626,806	10,95
627,138	10,94
627,471	10,93
627,804	10,93
628,137	10,96
628,469	10,96
628,802	10,97
629,135	10,97
629,467	10,98
629,8	10,99
630,132	10,97
630,465	10,97
630,797	10,96
631,129	10,93
631,461	10,91
631,794	10,9
632,126	10,91
632,458	10,9
632,79	10,88
633,122	10,87
633,454	10,85
633,786	10,82
634,118	10,8
634,45	10,8
634,781	10,82
635,113	10,82
635,445	10,82
635,777	10,82
636,108	10,79
636,44	10,79
636,771	10,77
637,103	10,77
637,434	10,76
637,765	10,75
638,097	10,72
638,428	10,72
638,759	10,68
639,09	10,65
639,422	10,65
639,753	10,63
640,084	10,6
640,415	10,57
640,746	10,57
641,077	10,6
641,407	10,6
641,738	10,57
642,069	10,55
642,4	10,55
642,73	10,55
643,061	10,6
643,392	10,59
643,722	10,62
644,053	10,62
644,383	10,6
644,713	10,61
645,044	10,58
645,374	10,57
645,704	10,56
646,034	10,57
646,365	10,55
646,695	10,53
647,025	10,57
647,355	10,63
647,685	10,67
648,015	10,64
648,344	10,6
648,674	10,62
649,004	10,59
649,334	10,61
649,663	10,62
649,993	10,61
650,323	10,63
650,652	10,57
650,982	10,56
651,311	10,56
651,64	10,51
651,97	10,52
652,299	10,5
652,628	10,52
652,958	10,54
653,287	10,56
653,616	10,58
653,945	10,58
654,274	10,58
654,603	10,54
654,932	10,55
655,261	10,6
655,589	10,65
655,918	10,67
656,247	10,71
656,576	10,74
656,904	10,78
657,233	10,81
657,561	10,9
657,89	10,96
658,218	10,99
658,547	11,04
658,875	11,09
659,203	11,14
659,532	11,16
659,86	11,2
660,188	11,19
660,516	11,23
660,844	11,26
661,172	11,26
661,5	11,31
661,828	11,34
662,156	11,35
662,484	11,36
662,811	11,39
663,139	11,36
663,467	11,33
663,794	11,32
664,122	11,32
664,45	11,26
664,777	11,21
665,104	11,25
665,432	11,27
665,759	11,27
666,086	11,25
666,414	11,23
666,741	11,17
667,068	11,18
667,395	11,12
667,722	11,09
668,049	11,09
668,376	11,06
668,703	11,08
669,03	11,09
669,357	11,05
669,683	11
670,01	11,03
670,337	11,02
670,663	10,97
670,99	10,91
671,317	10,9
671,643	10,91
671,969	10,86
672,296	10,83
672,622	10,81
672,948	10,77
673,275	10,76
673,601	10,77
673,927	10,72
674,253	10,73
674,579	10,74
674,905	10,75
675,231	10,76
675,557	10,75
675,883	10,74
676,209	10,78
676,534	10,83
676,86	10,84
677,186	10,87
677,511	10,94
677,837	11
678,162	11,05
678,488	11,09
678,813	11,15
679,139	11,19
679,464	11,2
679,789	11,21
680,114	11,2
680,44	11,2
680,765	11,22
681,09	11,2
681,415	11,16
681,74	11,14
682,065	11,16
682,39	11,17
682,714	11,16
683,039	11,14
683,364	11,16
683,689	11,16
684,013	11,15
684,338	11,12
684,662	11,12
684,987	11,14
685,311	11,16
685,636	11,13
685,96	11,1
686,284	11,12
686,608	11,13
686,933	11,11
687,257	11,11
687,581	11,16
687,905	11,23
688,229	11,27
688,553	11,23
688,877	11,18
689,201	11,15
689,524	11,16
689,848	11,15
690,172	11,13
690,496	11,11
690,819	11,1
691,143	11,08
691,466	11,04
691,79	10,96
692,113	10,86
692,436	10,8
692,76	10,8
693,083	10,77
693,406	10,74
693,729	10,72
694,053	10,73
694,376	10,7
694,699	10,65
695,022	10,64
695,344	10,74
695,667	10,85
695,99	10,96
696,313	11,05
696,636	11,14
696,958	11,19
697,281	11,29
697,604	11,38
697,926	11,41
698,249	11,44
698,571	11,48
698,893	11,51
699,216	11,56
699,538	11,58
699,86	11,6
700,182	11,65
700,504	11,71
700,827	11,73
701,149	11,72
701,471	11,73
701,793	11,7
702,114	11,64
702,436	11,56
702,758	11,46
703,08	11,32
703,401	11,2
703,723	11,11
704,045	11
704,366	10,85
704,688	10,81
705,009	10,77
705,331	10,78
705,652	10,79
705,973	10,76
706,294	10,71
706,616	10,7
706,937	10,74
707,258	10,7
707,579	10,71
707,9	10,74
708,221	10,8
708,542	10,87
708,863	10,9
709,183	10,93
709,504	10,95
709,825	10,96
710,145	11,02
710,466	11,06
710,787	11,09
711,107	11,19
711,427	11,23
711,748	11,27
712,068	11,36
712,388	11,43
712,709	11,52
713,029	11,57
713,349	11,59
713,669	11,57
713,989	11,57
714,309	11,61
714,629	11,67
714,949	11,7
715,269	11,68
715,589	11,69
715,908	11,68
716,228	11,69
716,548	11,75
716,867	11,74
717,187	11,76
717,506	11,8
717,826	11,76
718,145	11,77
718,465	11,86
718,784	11,86
719,103	11,86
719,422	11,79
719,741	11,82
720,061	11,88
720,38	11,96
720,699	12,11
721,018	12,22
721,336	12,33
721,655	12,46
721,974	12,63
722,293	12,78
722,612	12,98
722,93	13,15
723,249	13,28
723,567	13,44
723,886	13,49
724,204	13,49
724,523	13,65
724,841	13,76
725,159	13,79
725,477	13,93
725,796	14,02
726,114	14,22
726,432	14,33
726,75	14,37
727,068	14,48
727,386	14,63
727,704	14,7
728,022	14,77
728,339	14,82
728,657	14,87
728,975	14,87
729,292	14,92
729,61	15,04
729,928	15,16
730,245	15,33
730,562	15,49
730,88	15,68
731,197	15,78
731,514	15,85
731,832	15,93
732,149	15,97
732,466	16,12
732,783	16,16
733,1	16,3
733,417	16,47
733,734	16,57
734,051	16,6
734,368	16,61
734,684	16,64
735,001	16,7
735,318	16,81
735,634	16,99
735,951	17,08
736,268	17,09
736,584	17,11
736,9	17,06
737,217	17,11
737,533	17,2
737,849	17,29
738,166	17,44
738,482	17,62
738,798	17,75
739,114	17,89
739,43	18,07
739,746	18,11
740,062	18,16
740,378	18,24
740,693	18,36
741,009	18,58
741,325	18,77
741,641	18,87
741,956	19,01
742,272	19,15
742,587	19,3
742,903	19,49
743,218	19,59
743,533	19,76
743,849	19,92
744,164	19,93
744,479	19,97
744,794	20,12
745,109	20,27
745,424	20,35
745,739	20,33
746,054	20,41
746,369	20,49
746,684	20,65
746,999	20,73
747,313	20,71
747,628	20,74
747,943	20,74
748,257	20,85
748,572	21,01
748,886	21,12
749,201	21,22
749,515	21,28
749,829	21,41
750,144	21,53
750,458	21,54
750,772	21,68
751,086	21,8
751,4	21,85
751,714	21,8
752,028	21,82
752,342	21,91
752,656	21,85
752,97	21,97
753,284	22,05
753,597	22,19
753,911	22,42
754,225	22,56
754,538	22,65
754,852	22,74
755,165	22,71
755,478	22,73
755,792	22,69
756,105	22,68
756,418	22,75
756,731	22,84
757,045	23
757,358	23,11
757,671	23,18
757,984	23,3
758,297	23,39
758,609	23,39
758,922	23,41
759,235	23,55
759,548	23,48
759,86	23,29
760,173	23
760,486	22,75
760,798	22,51
761,111	22,44
761,423	22,4
761,735	22,4
762,048	22,39
762,36	22,45
762,672	22,54
762,984	22,55
763,296	22,51
763,608	22,53
763,92	22,55
764,232	22,58
764,544	22,54
764,856	22,68
765,168	22,82
765,48	22,9
765,791	22,95
766,103	23,07
766,414	23,36
766,726	23,78
767,037	24,2
767,349	24,62
767,66	24,89
767,972	25,19
768,283	25,53
768,594	25,7
768,905	25,89
769,216	26,07
769,527	26,38
769,838	26,67
770,149	26,84
770,46	27
770,771	27,31
771,082	27,59
771,393	27,74
771,703	27,95
772,014	28,18
772,324	28,35
772,635	28,57
772,945	28,8
773,256	28,86
773,566	28,85
773,877	28,94
774,187	29,07
774,497	29,13
774,807	29,33
775,117	29,7
775,427	30
775,737	30,06
776,047	30,13
776,357	30,33
776,667	30,41
776,977	30,43
777,287	30,42
777,596	30,47
777,906	30,63
778,216	30,75
778,525	30,87
778,835	31,05
779,144	31,21
779,453	31,25
779,763	31,4
780,072	31,52
780,381	31,76
780,69	31,99
781	32,32
781,309	32,34
781,618	32,39
781,927	32,46
782,235	32,83
782,544	33,22
782,853	33,47
783,162	33,8
783,471	33,98
783,779	34,21
784,088	34,45
784,396	34,53
784,705	34,54
785,013	34,53
785,322	34,41
785,63	34,35
785,938	34,13
786,246	34,02
786,554	34,03
786,863	33,97
787,171	33,97
787,479	33,9
787,787	33,92
788,094	34
788,402	33,88
788,71	33,81
789,018	33,57
789,326	33,33
789,633	33,15
789,941	33,28
790,248	33,19
790,556	33,16
790,863	33,13
791,171	33,1
791,478	33,05
791,785	33,12
792,092	32,99
792,399	33,21
792,707	33,38
793,014	33,42
793,321	33,49
793,628	33,7
793,934	33,8
794,241	33,71
794,548	33,65
794,855	33,73
795,161	33,71
795,468	33,62
795,775	33,76
796,081	34,06
796,388	34,15
796,694	34,19
797	34,15
797,307	34,11
797,613	34,21
797,919	34,65
798,225	34,87
798,531	35,09
798,837	35,03
799,143	34,92
799,449	35
799,755	35,05
800,061	34,95
800,367	35,08
800,672	35,33
800,978	35,45
801,284	35,71
801,589	35,84
801,895	36,02
802,2	35,99
802,506	35,84
802,811	35,79
803,116	35,82
803,421	35,75
803,727	35,85
804,032	35,98
804,337	35,7
804,642	35,68
804,947	35,81
805,252	35,98
805,556	36,37
805,861	36,74
806,166	36,9
806,471	37,03
806,775	37,06
807,08	37,09
807,384	37,12
807,689	37,12
807,993	37,19
808,298	37,41
808,602	37,82
808,906	38,06
809,211	38,18
809,515	38,5
809,819	38,99
810,123	39,05
810,427	39,05
810,731	39,3
811,035	39,57
811,338	39,58
811,642	39,52
811,946	39,15
812,25	38,89
812,553	38,83
812,857	38,69
813,16	38,58
813,464	38,5
813,767	38,53
814,07	38,57
814,374	38,6
814,677	38,5
814,98	38,21
815,283	37,82
815,586	37,5
815,889	37,29
816,192	37,14
816,495	36,99
816,798	36,8
817,101	36,51
817,404	36,31
817,706	36,2
818,009	35,75
818,312	35,22
818,614	34,12
818,917	32,52
819,219	30,64
819,521	28,79
819,824	27,29
820,126	26,21
820,428	25,3
820,73	24,76
821,032	24,36
821,334	24,08
821,636	23,93
821,938	23,88
822,24	23,82
822,542	23,72
822,844	23,73
823,145	23,7
823,447	23,63
823,749	23,49
824,05	23,4
824,352	23,32
824,653	23,27
824,955	23,22
825,256	23,29
825,557	23,45
825,858	23,77
826,16	24,13
826,461	24,49
826,762	25,01
827,063	25,55
827,364	26,05
827,665	26,5
827,965	26,96
828,266	27,38
828,567	27,71
828,868	28,05
829,168	28,19
829,469	28,37
829,769	28,61
830,07	28,91
830,37	29,18
830,67	29,54
830,971	29,92
831,271	30,32
831,571	30,71
831,871	31,16
832,171	31,19
832,471	31,24
832,771	31,3
833,071	31,27
833,371	31,1
833,671	31,14
833,971	31,23
834,27	31,21
834,57	31,37
834,869	31,63
835,169	31,79
835,468	31,96
835,768	32,24
836,067	32,35
836,367	32,65
836,666	33,09
836,965	33,65
837,264	34,28
837,563	35,16
837,862	36,03
838,161	36,75
838,46	37,85
838,759	39
839,058	40,09
839,356	41,1
839,655	41,86
839,954	42,46
840,252	43,31
840,551	44,21
840,849	44,47
841,148	44,55
841,446	44,6
841,744	44,62
842,043	44,61
842,341	45,07
842,639	45,52
842,937	45,66
843,235	45,99
843,533	46,5
843,831	47,36
844,129	48,12
844,427	49,02
844,724	49,91
845,022	50,98
845,32	52,15
845,617	53,06
845,915	54,34
846,212	55,3
846,51	55,78
846,807	56,02
847,104	56,59
847,402	57,29
847,699	58,42
847,996	59,36
848,293	60,44
848,59	61,43
848,887	61,65
849,184	62,52
849,481	63,12
849,778	63,58
850,074	63,43
850,371	63,46
850,668	63,48
850,964	63,28
851,261	62,98
851,557	62,77
851,854	62,6
852,15	62,41
852,446	62,41
852,743	62,18
853,039	62,86
853,335	63,51
853,631	63,79
853,927	63,87
854,223	63,76
854,519	63,97
854,815	64
855,111	64,06
855,406	63,67
855,702	63,65
855,998	64,07
856,293	64,7
856,589	65,63
856,884	66,17
857,18	67,04
857,475	67,79
857,77	67,99
858,066	68,46
858,361	68,47
858,656	68,54
858,951	69,01
859,246	68,9
859,541	68,67
859,836	68,75
860,131	68,14
860,426	68,26
860,72	68,13
861,015	67,96
861,31	67,66
861,604	67,87
861,899	68,08
862,193	67,8
862,487	67,49
862,782	66,36
863,076	65,84
863,37	64,85
863,664	64,11
863,959	64,33
864,253	64,7
864,547	64,8
864,841	64,47
865,135	64,13
865,428	63,75
865,722	63,42
866,016	62,77
866,31	63,32
866,603	63,62
866,897	63,64
867,19	62,68
867,484	62,11
867,777	62,03
868,07	62,29
868,364	61,99
868,657	61,22
868,95	60,85
869,243	60,43
869,536	60,62
869,829	61,23
870,122	61,1
870,415	60,53
870,708	60,61
871	60,64
871,293	60,81
871,586	60,65
871,878	60,44
872,171	60,61
872,463	60,07
872,756	59,81
873,048	58,66
873,341	59,18
873,633	59,86
873,925	59,61
874,217	58,6
874,509	58,22
874,801	58,92
875,093	60,06
875,385	60,95
875,677	61,5
875,969	60,65
