Data from zc74051_5_Reflection_00002.txt Node
Date: Thu Mar 12 15:05:57 ART 2020
User: Ana
Spectrometer: USB2E3644
Trigger mode: 4
Integration Time (sec): 5,000000E-2
Scans to average: 10
Electric dark correction enabled: true
Nonlinearity correction enabled: false
Boxcar width: 10
XAxis mode: Wavelengths
Number of Pixels in Spectrum: 2048
>>>>>Begin Spectral Data<<<<<
178,315	119,54
178,696	133,33
179,076	159,91
179,457	182,28
179,838	201,28
180,218	320,2
180,599	-805,56
180,979	94,74
181,36	342,22
181,74	164,65
182,121	129,63
182,501	113,45
182,881	106,63
183,262	101,85
183,642	100,5
184,022	98,44
184,402	95,1
184,783	90,01
185,163	88,63
185,543	89,44
185,923	89,73
186,303	91,01
186,683	94,25
187,063	94,94
187,443	95,48
187,823	93,71
188,203	92,81
188,583	93,44
188,963	91,05
189,343	89,08
189,723	89,3
190,102	89,61
190,482	89,06
190,862	89,01
191,242	91,08
191,621	93,25
192,001	95,48
192,38	97,4
192,76	100,32
193,14	101,79
193,519	102,55
193,898	102,64
194,278	102,56
194,657	102,1
195,037	103,21
195,416	103,44
195,795	103,9
196,175	104,75
196,554	104,14
196,933	104,7
197,312	105,89
197,692	106,47
198,071	107,66
198,45	110,37
198,829	112,64
199,208	113,2
199,587	113,23
199,966	113,69
200,345	113,8
200,724	113,61
201,103	113,83
201,482	114,18
201,86	114,33
202,239	113,89
202,618	113,75
202,997	113,72
203,375	114,35
203,754	115,49
204,133	116,39
204,511	116,68
204,89	115,97
205,269	114,57
205,647	113,3
206,026	111,79
206,404	110,15
206,782	108,51
207,161	107,05
207,539	106,39
207,918	105,53
208,296	104,95
208,674	105,42
209,052	106,45
209,431	106,78
209,809	107,59
210,187	108,94
210,565	110,16
210,943	111,11
211,321	111,82
211,699	112,43
212,077	112,21
212,455	112,68
212,833	113,52
213,211	114,13
213,589	114,99
213,967	115,48
214,345	114,6
214,722	113,88
215,1	114,47
215,478	115,41
215,855	116,89
216,233	118,41
216,611	118,83
216,988	118,05
217,366	117,06
217,743	115,92
218,121	114,64
218,498	112,7
218,876	110,88
219,253	109,04
219,631	106,75
220,008	105,84
220,385	104,9
220,762	104,17
221,14	103,92
221,517	103,45
221,894	103,52
222,271	104,81
222,648	106,19
223,025	106,3
223,402	105,73
223,78	104,31
224,157	102,05
224,533	100,47
224,91	100,12
225,287	100,39
225,664	101,48
226,041	103,62
226,418	105,65
226,795	106,76
227,171	107,41
227,548	108,61
227,925	109,07
228,301	109,97
228,678	110,63
229,055	111,5
229,431	112,88
229,808	113,78
230,184	114,18
230,561	114,97
230,937	115,53
231,313	116,5
231,69	118,61
232,066	122,75
232,442	126,41
232,819	129,12
233,195	130,8
233,571	132,42
233,947	132,45
234,323	133,1
234,699	134,78
235,075	137,22
235,451	140,18
235,827	143,31
236,203	146,18
236,579	150,32
236,955	154,98
237,331	159,9
237,707	167,62
238,083	177,69
238,459	189,55
238,834	207,86
239,21	232,66
239,586	261,54
239,961	285,16
240,337	304,02
240,713	318,11
241,088	334,53
241,464	348,34
241,839	365,88
242,215	397,27
242,59	486,71
242,965	861,41
243,341	-4623,66
243,716	-574,83
244,091	-331,18
244,467	-248,42
244,842	-203,89
245,217	-173,88
245,592	-157,95
245,967	-154,3
246,343	-148,85
246,718	-145,64
247,093	-148,52
247,468	-151,9
247,843	-150,46
248,218	-142,89
248,593	-129,89
248,967	-118,05
249,342	-111,03
249,717	-106,99
250,092	-104,12
250,467	-105,42
250,841	-113,26
251,216	-131,84
251,591	-162,73
251,965	-198,45
252,34	-234,6
252,714	-281,51
253,089	-339,33
253,463	-386,13
253,838	-387,31
254,212	-377,37
254,587	-343,13
254,961	-275,97
255,335	-216,33
255,71	-167,36
256,084	-122,02
256,458	-93,88
256,832	-78,48
257,206	-70,21
257,581	-66
257,955	-63,63
258,329	-61,28
258,703	-58,43
259,077	-56,09
259,451	-53,58
259,825	-52,48
260,199	-52,29
260,572	-51,17
260,946	-50,9
261,32	-50,53
261,694	-49,8
262,068	-49,35
262,441	-48,58
262,815	-48,69
263,189	-48,38
263,562	-48,91
263,936	-52,26
264,309	-58,06
264,683	-64,14
265,056	-67,84
265,43	-69,11
265,803	-68,59
266,176	-67,16
266,55	-66,18
266,923	-65,14
267,296	-63,52
267,67	-60,74
268,043	-58,2
268,416	-55,04
268,789	-51,38
269,162	-48,04
269,535	-45,57
269,908	-43,58
270,281	-42,52
270,654	-42,45
271,027	-43,18
271,4	-43,53
271,773	-43,49
272,146	-43,11
272,519	-42,79
272,891	-42,68
273,264	-42,53
273,637	-41,99
274,01	-41,81
274,382	-42,49
274,755	-42,79
275,127	-43,33
275,5	-43,68
275,872	-43,54
276,245	-43,73
276,617	-44,56
276,99	-45,21
277,362	-45,97
277,734	-46,43
278,107	-46,46
278,479	-45,67
278,851	-44,49
279,223	-43,81
279,596	-43,2
279,968	-42,88
280,34	-42,23
280,712	-41,31
281,084	-40,07
281,456	-39,03
281,828	-37,43
282,2	-35,07
282,572	-33,26
282,944	-31,91
283,315	-31,22
283,687	-30,74
284,059	-30,48
284,431	-30,15
284,802	-29,64
285,174	-29,1
285,546	-28,49
285,917	-27,81
286,289	-27,26
286,66	-26,98
287,032	-26,64
287,403	-26,47
287,775	-26,5
288,146	-26,81
288,518	-27,21
288,889	-27,38
289,26	-27,6
289,632	-28,34
290,003	-29,13
290,374	-29,48
290,745	-29,52
291,116	-29,22
291,487	-29,01
291,858	-28,62
292,229	-28,19
292,6	-27,76
292,971	-26,82
293,342	-25,74
293,713	-24,56
294,084	-23,52
294,455	-22,4
294,826	-21,73
295,196	-21,43
295,567	-21,29
295,938	-20,85
296,308	-20,28
296,679	-19,87
297,05	-19,5
297,42	-18,82
297,791	-18,22
298,161	-18,06
298,532	-17,78
298,902	-17,55
299,272	-17,32
299,643	-17,07
300,013	-16,68
300,383	-16,4
300,754	-16,49
301,124	-16,82
301,494	-17,18
301,864	-17,53
302,234	-17,98
302,604	-18,12
302,974	-17,92
303,344	-17,59
303,714	-17,36
304,084	-17,03
304,454	-16,77
304,824	-16,52
305,194	-16,5
305,563	-16,53
305,933	-16,34
306,303	-16,19
306,673	-15,81
307,042	-15,2
307,412	-14,54
307,781	-13,99
308,151	-13,6
308,521	-13,28
308,89	-13,02
309,259	-13,05
309,629	-12,99
309,998	-12,87
310,368	-12,76
310,737	-12,69
311,106	-12,54
311,475	-12,32
311,845	-12,35
312,214	-12,3
312,583	-12,27
312,952	-12,24
313,321	-12,23
313,69	-12,07
314,059	-12,08
314,428	-12,31
314,797	-12,7
315,166	-13,22
315,535	-13,78
315,904	-14,27
316,272	-14,62
316,641	-14,92
317,01	-14,87
317,379	-14,83
317,747	-14,6
318,116	-14,35
318,484	-14,16
318,853	-14,08
319,221	-14,09
319,59	-14,08
319,958	-14
320,327	-13,87
320,695	-13,7
321,063	-13,38
321,432	-13,05
321,8	-12,55
322,168	-12,13
322,536	-11,86
322,905	-11,43
323,273	-11,07
323,641	-10,8
324,009	-10,55
324,377	-10,33
324,745	-10,16
325,113	-9,97
325,481	-9,82
325,849	-9,7
326,216	-9,57
326,584	-9,41
326,952	-9,3
327,32	-9,07
327,687	-8,88
328,055	-8,65
328,423	-8,43
328,79	-8,37
329,158	-8,4
329,525	-8,44
329,893	-8,38
330,26	-8,38
330,628	-8,52
330,995	-8,51
331,362	-8,5
331,73	-8,54
332,097	-8,45
332,464	-8,31
332,831	-8,1
333,199	-8,02
333,566	-7,88
333,933	-7,63
334,3	-7,39
334,667	-7,27
335,034	-7,17
335,401	-7,13
335,768	-7,13
336,135	-7,14
336,502	-7,07
336,868	-6,99
337,235	-6,98
337,602	-6,96
337,969	-6,76
338,335	-6,5
338,702	-6,26
339,069	-6,04
339,435	-5,83
339,802	-5,66
340,168	-5,63
340,535	-5,61
340,901	-5,62
341,267	-5,59
341,634	-5,55
342	-5,48
342,366	-5,29
342,733	-5,21
343,099	-5,04
343,465	-4,94
343,831	-4,86
344,197	-4,75
344,563	-4,71
344,929	-4,68
345,295	-4,58
345,661	-4,47
346,027	-4,4
346,393	-4,4
346,759	-4,34
347,125	-4,32
347,491	-4,31
347,856	-4,28
348,222	-4,3
348,588	-4,13
348,953	-3,99
349,319	-3,97
349,684	-3,96
350,05	-3,96
350,415	-3,86
350,781	-3,81
351,146	-3,7
351,512	-3,55
351,877	-3,5
352,242	-3,42
352,608	-3,28
352,973	-3,17
353,338	-3,06
353,703	-2,91
354,068	-2,81
354,433	-2,73
354,798	-2,64
355,164	-2,51
355,528	-2,36
355,893	-2,28
356,258	-2,28
356,623	-2,2
356,988	-2,05
357,353	-1,95
357,718	-1,89
358,082	-1,85
358,447	-1,76
358,812	-1,64
359,176	-1,59
359,541	-1,46
359,905	-1,36
360,27	-1,29
360,634	-1,23
360,999	-1,16
361,363	-1,12
361,728	-1,05
362,092	-1,02
362,456	-0,98
362,821	-0,95
363,185	-0,93
363,549	-0,8
363,913	-0,72
364,277	-0,72
364,641	-0,76
365,005	-0,75
365,369	-0,71
365,733	-0,66
366,097	-0,62
366,461	-0,62
366,825	-0,55
367,189	-0,5
367,553	-0,41
367,916	-0,28
368,28	-0,21
368,644	-0,19
369,007	-0,15
369,371	-0,09
369,734	0
370,098	0,1
370,461	0,21
370,825	0,29
371,188	0,35
371,552	0,41
371,915	0,5
372,278	0,66
372,642	0,79
373,005	0,93
373,368	1,1
373,731	1,23
374,094	1,38
374,457	1,47
374,82	1,58
375,183	1,66
375,546	1,75
375,909	1,86
376,272	1,99
376,635	2,11
376,998	2,2
377,361	2,3
377,723	2,4
378,086	2,47
378,449	2,55
378,811	2,62
379,174	2,72
379,537	2,81
379,899	2,86
380,262	2,9
380,624	2,94
380,987	2,99
381,349	3,05
381,711	3,08
382,074	3,12
382,436	3,15
382,798	3,21
383,16	3,24
383,522	3,26
383,884	3,28
384,247	3,31
384,609	3,37
384,971	3,4
385,333	3,41
385,695	3,43
386,056	3,44
386,418	3,47
386,78	3,46
387,142	3,46
387,504	3,5
387,865	3,56
388,227	3,59
388,589	3,59
388,95	3,61
389,312	3,63
389,673	3,66
390,035	3,69
390,396	3,71
390,758	3,74
391,119	3,75
391,48	3,77
391,842	3,8
392,203	3,81
392,564	3,8
392,925	3,86
393,286	3,89
393,648	3,92
394,009	3,97
394,37	4,02
394,731	4,07
395,092	4,09
395,452	4,11
395,813	4,14
396,174	4,16
396,535	4,17
396,896	4,19
397,257	4,24
397,617	4,29
397,978	4,32
398,338	4,34
398,699	4,4
399,06	4,43
399,42	4,44
399,781	4,47
400,141	4,5
400,501	4,49
400,862	4,49
401,222	4,51
401,582	4,51
401,943	4,5
402,303	4,5
402,663	4,5
403,023	4,5
403,383	4,52
403,743	4,53
404,103	4,54
404,463	4,56
404,823	4,59
405,183	4,6
405,543	4,6
405,903	4,6
406,262	4,6
406,622	4,59
406,982	4,61
407,342	4,64
407,701	4,65
408,061	4,65
408,42	4,69
408,78	4,73
409,139	4,75
409,499	4,77
409,858	4,79
410,217	4,82
410,577	4,82
410,936	4,81
411,295	4,8
411,655	4,78
412,014	4,76
412,373	4,72
412,732	4,67
413,091	4,65
413,45	4,61
413,809	4,57
414,168	4,51
414,527	4,48
414,886	4,43
415,245	4,38
415,603	4,35
415,962	4,29
416,321	4,25
416,679	4,21
417,038	4,14
417,397	4,09
417,755	4,05
418,114	4,03
418,472	4,01
418,831	3,99
419,189	3,98
419,547	3,97
419,906	3,95
420,264	3,95
420,622	3,93
420,981	3,93
421,339	3,93
421,697	3,92
422,055	3,92
422,413	3,94
422,771	3,97
423,129	3,98
423,487	4,01
423,845	4,04
424,203	4,06
424,56	4,11
424,918	4,15
425,276	4,19
425,634	4,22
425,991	4,25
426,349	4,28
426,707	4,32
427,064	4,37
427,422	4,4
427,779	4,43
428,137	4,48
428,494	4,54
428,851	4,58
429,209	4,61
429,566	4,61
429,923	4,6
430,28	4,58
430,637	4,59
430,995	4,6
431,352	4,59
431,709	4,6
432,066	4,61
432,423	4,62
432,78	4,61
433,137	4,61
433,493	4,59
433,85	4,6
434,207	4,57
434,564	4,54
434,92	4,53
435,277	4,53
435,634	4,51
435,99	4,5
436,347	4,49
436,703	4,52
437,06	4,51
437,416	4,52
437,773	4,52
438,129	4,5
438,485	4,5
438,841	4,5
439,198	4,5
439,554	4,49
439,91	4,49
440,266	4,51
440,622	4,51
440,978	4,51
441,334	4,48
441,69	4,47
442,046	4,47
442,402	4,46
442,758	4,45
443,113	4,45
443,469	4,44
443,825	4,45
444,181	4,44
444,536	4,47
444,892	4,48
445,247	4,5
445,603	4,52
445,958	4,53
446,314	4,54
446,669	4,56
447,025	4,57
447,38	4,57
447,735	4,57
448,09	4,59
448,446	4,62
448,801	4,64
449,156	4,68
449,511	4,72
449,866	4,77
450,221	4,82
450,576	4,86
450,931	4,92
451,286	4,94
451,641	4,98
451,995	5,01
452,35	5,04
452,705	5,06
453,06	5,07
453,414	5,09
453,769	5,08
454,123	5,07
454,478	5,07
454,832	5,09
455,187	5,07
455,541	5,04
455,896	5,01
456,25	5
456,604	4,97
456,958	4,95
457,313	4,92
457,667	4,91
458,021	4,92
458,375	4,93
458,729	4,96
459,083	4,97
459,437	4,97
459,791	4,95
460,145	4,96
460,499	4,97
460,852	4,96
461,206	4,96
461,56	4,96
461,914	4,97
462,267	4,98
462,621	5
462,974	5,04
463,328	5,06
463,681	5,09
464,035	5,14
464,388	5,18
464,742	5,21
465,095	5,22
465,448	5,22
465,801	5,21
466,155	5,2
466,508	5,18
466,861	5,18
467,214	5,2
467,567	5,2
467,92	5,21
468,273	5,23
468,626	5,22
468,979	5,23
469,332	5,24
469,684	5,24
470,037	5,24
470,39	5,25
470,743	5,28
471,095	5,29
471,448	5,29
471,8	5,3
472,153	5,32
472,505	5,34
472,858	5,34
473,21	5,34
473,562	5,36
473,915	5,37
474,267	5,39
474,619	5,39
474,971	5,39
475,324	5,38
475,676	5,4
476,028	5,42
476,38	5,44
476,732	5,45
477,084	5,45
477,436	5,45
477,787	5,43
478,139	5,43
478,491	5,42
478,843	5,41
479,195	5,41
479,546	5,34
479,898	5,32
480,249	5,29
480,601	5,26
480,952	5,23
481,304	5,21
481,655	5,2
482,007	5,19
482,358	5,19
482,709	5,19
483,061	5,18
483,412	5,17
483,763	5,16
484,114	5,16
484,465	5,17
484,816	5,17
485,167	5,18
485,518	5,18
485,869	5,18
486,22	5,19
486,571	5,19
486,922	5,22
487,272	5,23
487,623	5,26
487,974	5,29
488,324	5,32
488,675	5,34
489,025	5,36
489,376	5,38
489,726	5,4
490,077	5,41
490,427	5,44
490,778	5,46
491,128	5,49
491,478	5,52
491,828	5,55
492,179	5,59
492,529	5,61
492,879	5,63
493,229	5,66
493,579	5,67
493,929	5,7
494,279	5,73
494,629	5,75
494,979	5,79
495,328	5,83
495,678	5,87
496,028	5,92
496,378	5,96
496,727	5,99
497,077	6,02
497,426	6,05
497,776	6,06
498,125	6,08
498,475	6,09
498,824	6,1
499,174	6,11
499,523	6,14
499,872	6,17
500,221	6,22
500,571	6,25
500,92	6,27
501,269	6,29
501,618	6,31
501,967	6,34
502,316	6,36
502,665	6,37
503,014	6,38
503,363	6,39
503,711	6,42
504,06	6,44
504,409	6,45
504,758	6,45
505,106	6,45
505,455	6,47
505,803	6,49
506,152	6,49
506,5	6,51
506,849	6,5
507,197	6,49
507,546	6,51
507,894	6,53
508,242	6,55
508,59	6,54
508,939	6,54
509,287	6,56
509,635	6,56
509,983	6,59
510,331	6,62
510,679	6,65
511,027	6,65
511,375	6,66
511,723	6,7
512,07	6,73
512,418	6,76
512,766	6,77
513,114	6,79
513,461	6,83
513,809	6,83
514,156	6,85
514,504	6,88
514,851	6,87
515,199	6,86
515,546	6,85
515,893	6,86
516,241	6,88
516,588	6,9
516,935	6,92
517,282	6,93
517,63	6,95
517,977	6,96
518,324	6,99
518,671	7,02
519,018	7,02
519,365	7,04
519,711	7,05
520,058	7,08
520,405	7,1
520,752	7,1
521,099	7,14
521,445	7,16
521,792	7,17
522,138	7,19
522,485	7,21
522,832	7,26
523,178	7,28
523,524	7,31
523,871	7,32
524,217	7,34
524,563	7,34
524,91	7,33
525,256	7,31
525,602	7,31
525,948	7,31
526,294	7,31
526,64	7,3
526,986	7,29
527,332	7,29
527,678	7,29
528,024	7,31
528,37	7,32
528,716	7,33
529,061	7,34
529,407	7,37
529,753	7,39
530,098	7,4
530,444	7,41
530,789	7,41
531,135	7,42
531,48	7,42
531,826	7,44
532,171	7,47
532,516	7,5
532,862	7,54
533,207	7,57
533,552	7,6
533,897	7,65
534,242	7,68
534,587	7,7
534,932	7,74
535,277	7,76
535,622	7,78
535,967	7,81
536,312	7,84
536,657	7,87
537,001	7,91
537,346	7,96
537,691	8
538,035	8,03
538,38	8,04
538,724	8,08
539,069	8,1
539,413	8,12
539,758	8,14
540,102	8,16
540,446	8,16
540,791	8,19
541,135	8,2
541,479	8,24
541,823	8,26
542,167	8,26
542,512	8,29
542,856	8,29
543,2	8,28
543,543	8,3
543,887	8,31
544,231	8,34
544,575	8,36
544,919	8,38
545,262	8,42
545,606	8,48
545,95	8,51
546,293	8,54
546,637	8,58
546,98	8,62
547,324	8,65
547,667	8,7
548,011	8,73
548,354	8,76
548,697	8,77
549,04	8,8
549,384	8,82
549,727	8,81
550,07	8,85
550,413	8,9
550,756	8,92
551,099	8,94
551,442	8,93
551,785	8,94
552,128	8,96
552,47	8,98
552,813	8,98
553,156	8,97
553,499	8,98
553,841	9
554,184	9,01
554,526	9,02
554,869	9,02
555,211	9,03
555,554	9,05
555,896	9,05
556,238	9,04
556,581	9,06
556,923	9,07
557,265	9,07
557,607	9,07
557,949	9,09
558,291	9,1
558,633	9,13
558,975	9,16
559,317	9,15
559,659	9,14
560,001	9,15
560,343	9,17
560,685	9,19
561,026	9,19
561,368	9,18
561,71	9,2
562,051	9,19
562,393	9,19
562,734	9,19
563,076	9,21
563,417	9,21
563,759	9,22
564,1	9,24
564,441	9,23
564,782	9,22
565,124	9,21
565,465	9,22
565,806	9,23
566,147	9,24
566,488	9,27
566,829	9,29
567,17	9,31
567,511	9,32
567,851	9,33
568,192	9,34
568,533	9,37
568,874	9,39
569,214	9,43
569,555	9,43
569,895	9,43
570,236	9,45
570,576	9,47
570,917	9,48
571,257	9,52
571,598	9,54
571,938	9,58
572,278	9,6
572,618	9,64
572,959	9,67
573,299	9,67
573,639	9,67
573,979	9,68
574,319	9,69
574,659	9,71
574,999	9,72
575,339	9,76
575,678	9,76
576,018	9,75
576,358	9,75
576,698	9,78
577,037	9,8
577,377	9,81
577,716	9,84
578,056	9,85
578,395	9,82
578,735	9,84
579,074	9,83
579,413	9,84
579,753	9,82
580,092	9,79
580,431	9,8
580,77	9,79
581,109	9,78
581,448	9,77
581,787	9,78
582,126	9,8
582,465	9,79
582,804	9,81
583,143	9,83
583,482	9,85
583,82	9,88
584,159	9,91
584,498	9,92
584,836	9,95
585,175	9,98
585,514	10,04
585,852	10,06
586,19	10,1
586,529	10,11
586,867	10,17
587,205	10,21
587,544	10,26
587,882	10,33
588,22	10,39
588,558	10,45
588,896	10,48
589,234	10,5
589,572	10,53
589,91	10,58
590,248	10,6
590,586	10,64
590,924	10,68
591,262	10,7
591,599	10,75
591,937	10,76
592,275	10,8
592,612	10,83
592,95	10,89
593,287	10,94
593,625	11,01
593,962	11,06
594,299	11,13
594,637	11,19
594,974	11,22
595,311	11,26
595,648	11,28
595,985	11,31
596,322	11,35
596,659	11,39
596,996	11,42
597,333	11,42
597,67	11,42
598,007	11,46
598,344	11,48
598,681	11,52
599,017	11,56
599,354	11,59
599,691	11,63
600,027	11,67
600,364	11,7
600,7	11,75
601,037	11,79
601,373	11,83
601,71	11,86
602,046	11,93
602,382	11,96
602,718	11,99
603,054	12,02
603,391	12,06
603,727	12,06
604,063	12,07
604,399	12,12
604,735	12,16
605,071	12,18
605,406	12,21
605,742	12,25
606,078	12,3
606,414	12,33
606,749	12,37
607,085	12,4
607,421	12,44
607,756	12,45
608,092	12,46
608,427	12,47
608,762	12,48
609,098	12,48
609,433	12,49
609,768	12,52
610,104	12,53
610,439	12,54
610,774	12,58
611,109	12,59
611,444	12,61
611,779	12,63
612,114	12,65
612,449	12,69
612,784	12,7
613,118	12,7
613,453	12,72
613,788	12,69
614,123	12,68
614,457	12,67
614,792	12,69
615,126	12,72
615,461	12,77
615,795	12,78
616,13	12,78
616,464	12,82
616,798	12,86
617,132	12,91
617,467	12,95
617,801	12,98
618,135	13,04
618,469	13,09
618,803	13,13
619,137	13,16
619,471	13,15
619,805	13,15
620,139	13,17
620,472	13,21
620,806	13,26
621,14	13,3
621,473	13,33
621,807	13,35
622,141	13,38
622,474	13,39
622,808	13,44
623,141	13,5
623,474	13,56
623,808	13,59
624,141	13,67
624,474	13,71
624,807	13,74
625,141	13,77
625,474	13,81
625,807	13,85
626,14	13,91
626,473	13,97
626,806	14,03
627,138	14,08
627,471	14,09
627,804	14,12
628,137	14,17
628,469	14,23
628,802	14,29
629,135	14,3
629,467	14,33
629,8	14,37
630,132	14,39
630,465	14,43
630,797	14,47
631,129	14,46
631,461	14,49
631,794	14,55
632,126	14,59
632,458	14,62
632,79	14,66
633,122	14,69
633,454	14,69
633,786	14,68
634,118	14,75
634,45	14,81
634,781	14,87
635,113	14,91
635,445	14,94
635,777	14,97
636,108	15,01
636,44	15,05
636,771	15,06
637,103	15,09
637,434	15,12
637,765	15,15
638,097	15,15
638,428	15,19
638,759	15,19
639,09	15,18
639,422	15,2
639,753	15,2
640,084	15,19
640,415	15,23
640,746	15,32
641,077	15,34
641,407	15,33
641,738	15,32
642,069	15,35
642,4	15,35
642,73	15,38
643,061	15,41
643,392	15,4
643,722	15,46
644,053	15,51
644,383	15,52
644,713	15,51
645,044	15,57
645,374	15,65
645,704	15,7
646,034	15,77
646,365	15,86
646,695	15,9
647,025	16,02
647,355	16,09
647,685	16,1
648,015	16,13
648,344	16,17
648,674	16,26
649,004	16,27
649,334	16,33
649,663	16,4
649,993	16,48
650,323	16,57
650,652	16,6
650,982	16,61
651,311	16,63
651,64	16,66
651,97	16,69
652,299	16,68
652,628	16,73
652,958	16,74
653,287	16,79
653,616	16,8
653,945	16,75
654,274	16,81
654,603	16,88
654,932	16,91
655,261	16,94
655,589	16,96
655,918	17,1
656,247	17,2
656,576	17,23
656,904	17,28
657,233	17,31
657,561	17,37
657,89	17,43
658,218	17,52
658,547	17,6
658,875	17,66
659,203	17,72
659,532	17,73
659,86	17,81
660,188	17,78
660,516	17,82
660,844	17,87
661,172	17,84
661,5	17,84
661,828	17,87
662,156	17,92
662,484	17,95
662,811	17,91
663,139	17,88
663,467	17,9
663,794	17,9
664,122	17,93
664,45	17,95
664,777	17,97
665,104	18
665,432	18,01
665,759	18,03
666,086	18,02
666,414	18,05
666,741	18,1
667,068	18,17
667,395	18,2
667,722	18,24
668,049	18,27
668,376	18,29
668,703	18,33
669,03	18,34
669,357	18,35
669,683	18,37
670,01	18,4
670,337	18,43
670,663	18,43
670,99	18,41
671,317	18,45
671,643	18,49
671,969	18,48
672,296	18,52
672,622	18,55
672,948	18,6
673,275	18,58
673,601	18,51
673,927	18,49
674,253	18,52
674,579	18,56
674,905	18,61
675,231	18,68
675,557	18,73
675,883	18,74
676,209	18,86
676,534	18,91
676,86	19,02
677,186	19,09
677,511	19,2
677,837	19,28
678,162	19,3
678,488	19,38
678,813	19,44
679,139	19,51
679,464	19,53
679,789	19,54
680,114	19,66
680,44	19,72
680,765	19,79
681,09	19,84
681,415	19,88
681,74	19,89
682,065	19,9
682,39	19,94
682,714	19,99
683,039	19,98
683,364	20,02
683,689	19,99
684,013	19,95
684,338	19,93
684,662	19,95
684,987	19,98
685,311	19,97
685,636	20,03
685,96	20,04
686,284	20,1
686,608	20,14
686,933	20,07
687,257	20,11
687,581	20,14
687,905	20,19
688,229	20,19
688,553	20,26
688,877	20,31
689,201	20,32
689,524	20,38
689,848	20,38
690,172	20,37
690,496	20,38
690,819	20,49
691,143	20,53
691,466	20,58
691,79	20,58
692,113	20,59
692,436	20,59
692,76	20,64
693,083	20,68
693,406	20,68
693,729	20,73
694,053	20,72
694,376	20,76
694,699	20,71
695,022	20,79
695,344	20,91
695,667	20,97
695,99	21,12
696,313	21,25
696,636	21,37
696,958	21,47
697,281	21,58
697,604	21,65
697,926	21,69
698,249	21,7
698,571	21,72
698,893	21,74
699,216	21,78
699,538	21,81
699,86	21,82
700,182	21,87
700,504	21,95
700,827	21,98
701,149	22
701,471	22,08
701,793	22,1
702,114	22,05
702,436	22,02
702,758	21,92
703,08	21,82
703,401	21,7
703,723	21,67
704,045	21,53
704,366	21,44
704,688	21,46
705,009	21,46
705,331	21,53
705,652	21,55
705,973	21,51
706,294	21,46
706,616	21,52
706,937	21,55
707,258	21,53
707,579	21,56
707,9	21,56
708,221	21,65
708,542	21,68
708,863	21,67
709,183	21,74
709,504	21,83
709,825	21,92
710,145	22,02
710,466	22,09
710,787	22,18
711,107	22,27
711,427	22,3
711,748	22,35
712,068	22,39
712,388	22,45
712,709	22,59
713,029	22,7
713,349	22,73
713,669	22,73
713,989	22,79
714,309	22,92
714,629	23,08
714,949	23,12
715,269	23,2
715,589	23,32
715,908	23,4
716,228	23,43
716,548	23,42
716,867	23,41
717,187	23,43
717,506	23,56
717,826	23,59
718,145	23,61
718,465	23,73
718,784	23,79
719,103	23,84
719,422	23,81
719,741	23,8
720,061	23,8
720,38	23,87
720,699	23,92
721,018	23,97
721,336	24
721,655	24,1
721,974	24,27
722,293	24,35
722,612	24,44
722,93	24,57
723,249	24,71
723,567	25,01
723,886	25,16
724,204	25,17
724,523	25,32
724,841	25,39
725,159	25,48
725,477	25,68
725,796	25,8
726,114	25,99
726,432	26,21
726,75	26,4
727,068	26,64
727,386	26,81
727,704	26,9
728,022	27,03
728,339	27,06
728,657	27,05
728,975	27,17
729,292	27,33
729,61	27,45
729,928	27,51
730,245	27,64
730,562	27,77
730,88	27,96
731,197	28,15
731,514	28,3
731,832	28,37
732,149	28,39
732,466	28,49
732,783	28,55
733,1	28,64
733,417	28,72
733,734	28,75
734,051	28,82
734,368	28,91
734,684	28,96
735,001	29,12
735,318	29,26
735,634	29,35
735,951	29,38
736,268	29,4
736,584	29,54
736,9	29,5
737,217	29,56
737,533	29,6
737,849	29,62
738,166	29,74
738,482	29,93
738,798	30,18
739,114	30,45
739,43	30,63
739,746	30,67
740,062	30,75
740,378	30,91
740,693	31,07
741,009	31,3
741,325	31,44
741,641	31,51
741,956	31,6
742,272	31,76
742,587	31,88
742,903	32,09
743,218	32,27
743,533	32,39
743,849	32,5
744,164	32,6
744,479	32,68
744,794	32,88
745,109	33,02
745,424	32,98
745,739	32,92
746,054	32,98
746,369	33,08
746,684	33,29
746,999	33,36
747,313	33,44
747,628	33,45
747,943	33,44
748,257	33,59
748,572	33,79
748,886	33,83
749,201	33,95
749,515	33,92
749,829	34,06
750,144	34,18
750,458	34,24
750,772	34,33
751,086	34,5
751,4	34,58
751,714	34,59
752,028	34,71
752,342	34,85
752,656	34,94
752,97	35,06
753,284	35,05
753,597	35,13
753,911	35,24
754,225	35,27
754,538	35,42
754,852	35,38
755,165	35,31
755,478	35,45
755,792	35,51
756,105	35,69
756,418	35,66
756,731	35,66
757,045	35,68
757,358	35,79
757,671	35,75
757,984	35,73
758,297	35,71
758,609	35,82
758,922	35,88
759,235	35,73
759,548	35,71
759,86	35,53
760,173	35,2
760,486	35,1
760,798	35,15
761,111	35,16
761,423	35,13
761,735	35,1
762,048	35,13
762,36	35,2
762,672	35,25
762,984	35,29
763,296	35,39
763,608	35,53
763,92	35,58
764,232	35,7
764,544	35,82
764,856	36,01
765,168	36,07
765,48	36,11
765,791	36,3
766,103	36,44
766,414	36,77
766,726	37,29
767,037	37,57
767,349	37,76
767,66	38,05
767,972	38,54
768,283	38,95
768,594	39,13
768,905	39,27
769,216	39,33
769,527	39,5
769,838	39,71
770,149	39,97
770,46	40,17
770,771	40,33
771,082	40,41
771,393	40,44
771,703	40,63
772,014	40,88
772,324	41,11
772,635	41,25
772,945	41,28
773,256	41,22
773,566	41,4
773,877	41,57
774,187	41,62
774,497	41,66
774,807	41,84
775,117	41,94
775,427	42,03
775,737	42,27
776,047	42,49
776,357	42,71
776,667	42,8
776,977	42,89
777,287	43,03
777,596	43,2
777,906	43,31
778,216	43,34
778,525	43,47
778,835	43,59
779,144	44,43
779,453	44,92
779,763	45,13
780,072	45,2
780,381	45,38
780,69	45,4
781	45,48
781,309	45,47
781,618	45,63
781,927	45,96
782,235	46,41
782,544	46,76
782,853	46,96
783,162	47,18
783,471	47,17
783,779	47,02
784,088	47,14
784,396	47,24
784,705	47,29
785,013	47,26
785,322	47,13
785,63	46,3
785,938	45,88
786,246	45,91
786,554	45,9
786,863	45,7
787,171	45,8
787,479	45,85
787,787	46,06
788,094	46,19
788,402	45,92
788,71	45,75
789,018	45,7
789,326	45,53
789,633	45,59
789,941	45,92
790,248	46,1
790,556	46,34
790,863	46,6
791,171	46,65
791,478	46,64
791,785	46,86
792,092	47,02
792,399	47,28
792,707	47,37
793,014	47,21
793,321	47,37
793,628	47,72
793,934	47,86
794,241	47,67
794,548	47,63
794,855	47,9
795,161	48,05
795,468	48,05
795,775	48,18
796,081	48,1
796,388	48,1
796,694	48,31
797	47,97
797,307	47,69
797,613	47,6
797,919	47,84
798,225	47,95
798,531	48,07
798,837	47,98
799,143	47,92
799,449	48,18
799,755	48,45
800,061	48,44
800,367	48,59
800,672	48,98
800,978	49,16
801,284	49,45
801,589	49,39
801,895	49,21
802,2	49,25
802,506	49,47
802,811	49,48
803,116	49,39
803,421	49,65
803,727	49,89
804,032	50,14
804,337	49,87
804,642	49,77
804,947	49,73
805,252	49,98
805,556	50,3
805,861	50,42
806,166	50,14
806,471	49,92
806,775	49,82
807,08	49,7
807,384	49,7
807,689	49,62
807,993	49,62
808,298	49,89
808,602	49,96
808,906	49,8
809,211	49,73
809,515	49,87
809,819	49,87
810,123	49,9
810,427	50,06
810,731	50,24
811,035	50,17
811,338	50,19
811,642	50,18
811,946	50,02
812,25	49,98
812,553	50,33
812,857	50,53
813,16	50,51
813,464	50,34
813,767	50,24
814,07	50,28
814,374	50,6
814,677	50,61
814,98	50,57
815,283	50,45
815,586	50,39
815,889	50,39
816,192	50,34
816,495	50,03
816,798	49,57
817,101	49,34
817,404	49,52
817,706	49,54
818,009	49,15
818,312	48,66
818,614	47,79
818,917	46,03
819,219	43,91
819,521	42,69
819,824	41,62
820,126	40,77
820,428	40,05
820,73	39,55
821,032	39,16
821,334	38,82
821,636	38,64
821,938	38,51
822,24	38,34
822,542	38,25
822,844	38,3
823,145	38,26
823,447	38,22
823,749	38,06
824,05	37,88
824,352	37,83
824,653	37,87
824,955	37,91
825,256	38,12
825,557	38,44
825,858	38,65
826,16	38,92
826,461	39,24
826,762	39,66
827,063	40,09
827,364	40,57
827,665	41,1
827,965	41,5
828,266	41,87
828,567	42,22
828,868	42,54
829,168	42,67
829,469	42,9
829,769	43,1
830,07	43,43
830,37	43,86
830,67	44,19
830,971	44,36
831,271	44,64
831,571	44,94
831,871	45,32
832,171	45,41
832,471	45,51
832,771	45,58
833,071	45,48
833,371	45,39
833,671	45,44
833,971	45,42
834,27	45,47
834,57	45,76
834,869	45,95
835,169	46,08
835,468	46,31
835,768	46,63
836,067	46,85
836,367	47,18
836,666	47,59
836,965	47,93
837,264	48,44
837,563	49,09
837,862	49,79
838,161	50,23
838,46	50,82
838,759	51,48
839,058	52,17
839,356	53,02
839,655	53,53
839,954	53,94
840,252	54,63
840,551	55,26
840,849	55,3
841,148	55,83
841,446	56,06
841,744	56
842,043	55,99
842,341	56,41
842,639	57
842,937	57,41
843,235	57,91
843,533	58,31
843,831	58,81
844,129	58,99
844,427	59,94
844,724	60,65
845,022	61,2
845,32	61,86
845,617	62,57
845,915	63,71
846,212	64,24
846,51	64,59
846,807	65,06
847,104	65,92
847,402	66,15
847,699	66,91
847,996	67,37
848,293	67,75
848,59	67,75
848,887	67,45
849,184	67,81
849,481	68,51
849,778	69,15
850,074	69,44
850,371	70,1
850,668	69,83
850,964	70,23
851,261	71,2
851,557	72,04
851,854	72,57
852,15	72,28
852,446	72,01
852,743	71,34
853,039	71,08
853,335	70,53
853,631	70,41
853,927	70,34
854,223	70,49
854,519	71,01
854,815	71,78
855,111	72,21
855,406	72,15
855,702	71,78
855,998	71,24
856,293	71,25
856,589	71,65
856,884	72,1
857,18	72,36
857,475	72,4
857,77	71,88
858,066	71,97
858,361	72,64
858,656	73,49
858,951	74,65
859,246	75,41
859,541	75,89
859,836	76,57
860,131	76,32
860,426	75,77
860,72	75,58
861,015	75,07
861,31	74,57
861,604	74,31
861,899	74,48
862,193	74,94
862,487	75,04
862,782	74,37
863,076	74,7
863,37	74,56
863,664	74,73
863,959	75,6
864,253	75,55
864,547	74,95
864,841	74,25
865,135	74,19
865,428	74,17
865,722	74,56
866,016	74,27
866,31	74,84
866,603	75,63
866,897	75,84
867,19	75,62
867,484	75,57
867,777	76,03
868,07	76,31
868,364	75,87
868,657	75,1
868,95	74,49
869,243	73,46
869,536	73,38
869,829	73,22
870,122	72,49
870,415	71,61
870,708	71,51
871	71,64
871,293	71,31
871,586	70,92
871,878	70,67
872,171	70,76
872,463	70,29
872,756	69,92
873,048	69,42
873,341	69,45
873,633	69,58
873,925	68,75
874,217	68,04
874,509	67,91
874,801	68,39
875,093	69,47
875,385	70,5
875,677	70,68
875,969	69,9
