Data from zc74051_3_Reflection_00005.txt Node
Date: Thu Mar 12 15:04:52 ART 2020
User: Ana
Spectrometer: USB2E3644
Trigger mode: 4
Integration Time (sec): 5,000000E-2
Scans to average: 10
Electric dark correction enabled: true
Nonlinearity correction enabled: false
Boxcar width: 10
XAxis mode: Wavelengths
Number of Pixels in Spectrum: 2048
>>>>>Begin Spectral Data<<<<<
178,315	121,43
178,696	133,78
179,076	173,53
179,457	202,7
179,838	205,77
180,218	309,09
180,599	-625
180,979	89,47
181,36	350
181,74	190,91
182,121	152,22
182,501	118,98
182,881	114,68
183,262	114,32
183,642	112,92
184,022	112,21
184,402	111,09
184,783	108,5
185,163	106,38
185,543	105,32
185,923	105,53
186,303	106,46
186,683	109,98
187,063	114,84
187,443	117,18
187,823	114,51
188,203	111,39
188,583	110,23
188,963	107,63
189,343	106,01
189,723	105,97
190,102	105,3
190,482	103,85
190,862	102,68
191,242	101,12
191,621	100,51
192,001	100,93
192,38	102,02
192,76	103,75
193,14	105,03
193,519	106,66
193,898	107,33
194,278	106,74
194,657	105,27
195,037	104,29
195,416	103,68
195,795	104,36
196,175	106,19
196,554	105,77
196,933	105,88
197,312	106,43
197,692	106,39
198,071	107,27
198,45	108,73
198,829	109,35
199,208	109,72
199,587	110,15
199,966	110,73
200,345	111,37
200,724	111,6
201,103	111,13
201,482	110,51
201,86	109,75
202,239	109,35
202,618	109,42
202,997	110,05
203,375	110,05
203,754	109,15
204,133	108,13
204,511	107,75
204,89	107,16
205,269	105,68
205,647	104,84
206,026	103,87
206,404	103,6
206,782	103,83
207,161	103,92
207,539	104,26
207,918	104,39
208,296	104,08
208,674	104,57
209,052	105,51
209,431	106,27
209,809	107,42
210,187	108,42
210,565	109,09
210,943	108,6
211,321	108,15
211,699	109,1
212,077	109,95
212,455	110,77
212,833	111,49
213,211	112,56
213,589	113,59
213,967	114,73
214,345	114,62
214,722	113,99
215,1	113,82
215,478	113,61
215,855	113,42
216,233	113,19
216,611	111,75
216,988	110,36
217,366	108,86
217,743	107,99
218,121	107,06
218,498	106,53
218,876	106,57
219,253	106,97
219,631	106,02
220,008	105,58
220,385	105,74
220,762	106,3
221,14	105,87
221,517	105,04
221,894	104,36
222,271	104,09
222,648	104,37
223,025	104,22
223,402	104,48
223,78	104,14
224,157	103,65
224,533	104,53
224,91	106
225,287	107,76
225,664	108,85
226,041	110,72
226,418	112,32
226,795	112,83
227,171	113,27
227,548	114,18
227,925	114,39
228,301	114,22
228,678	112,68
229,055	112,48
229,431	113,38
229,808	114,38
230,184	115,47
230,561	116,68
230,937	117,45
231,313	117,72
231,69	118,52
232,066	120,94
232,442	123,07
232,819	124,54
233,195	125,74
233,571	127,55
233,947	128
234,323	128,23
234,699	129,74
235,075	130,99
235,451	132,68
235,827	135,04
236,203	138,27
236,579	143,84
236,955	149,12
237,331	154,15
237,707	160,68
238,083	169,08
238,459	180,32
238,834	197,67
239,21	220,92
239,586	248,67
239,961	271,74
240,337	288,27
240,713	299,89
241,088	311,84
241,464	323,51
241,839	339,82
242,215	369,35
242,59	453,09
242,965	803,33
243,341	-4333,87
243,716	-540,36
244,091	-310,25
244,467	-233,25
244,842	-192,25
245,217	-163,81
245,592	-149,11
245,967	-146
246,343	-140,09
246,718	-136,45
247,093	-139,26
247,468	-142,96
247,843	-141,26
248,218	-133,89
248,593	-121,63
248,967	-111,06
249,342	-104,46
249,717	-100,66
250,092	-98,22
250,467	-99,42
250,841	-107,36
251,216	-125,15
251,591	-153,69
251,965	-187,57
252,34	-220,64
252,714	-262,16
253,089	-313,87
253,463	-353,99
253,838	-355,09
254,212	-347,59
254,587	-317,65
254,961	-257,61
255,335	-202,27
255,71	-156,23
256,084	-113,6
256,458	-87,02
256,832	-72,06
257,206	-63,92
257,581	-59,58
257,955	-57,25
258,329	-54,97
258,703	-52,25
259,077	-49,96
259,451	-47,99
259,825	-47,22
260,199	-47,42
260,572	-46,99
260,946	-47,13
261,32	-46,95
261,694	-46
262,068	-45,53
262,441	-44,78
262,815	-44,62
263,189	-44,23
263,562	-44,9
263,936	-48,39
264,309	-54,3
264,683	-60,89
265,056	-64,91
265,43	-66,38
265,803	-65,9
266,176	-64,95
266,55	-64,27
266,923	-63,67
267,296	-62,39
267,67	-59,41
268,043	-56,11
268,416	-52,28
268,789	-48,37
269,162	-44,89
269,535	-42,3
269,908	-40,18
270,281	-38,99
270,654	-38,85
271,027	-39,5
271,4	-39,72
271,773	-39,62
272,146	-39,3
272,519	-38,95
272,891	-38,88
273,264	-38,91
273,637	-38,53
274,01	-38,07
274,382	-38,57
274,755	-38,82
275,127	-38,95
275,5	-39,14
275,872	-39,22
276,245	-39,63
276,617	-40,67
276,99	-41,75
277,362	-42,89
277,734	-43,36
278,107	-43,05
278,479	-42,1
278,851	-40,87
279,223	-40,16
279,596	-39,5
279,968	-39,16
280,34	-38,36
280,712	-37,52
281,084	-36,01
281,456	-34,6
281,828	-33,02
282,2	-30,72
282,572	-28,97
282,944	-27,77
283,315	-27,21
283,687	-26,71
284,059	-26,47
284,431	-26,1
284,802	-25,44
285,174	-24,97
285,546	-24,58
285,917	-24,21
286,289	-23,87
286,66	-23,62
287,032	-23,16
287,403	-22,86
287,775	-22,6
288,146	-22,78
288,518	-23,03
288,889	-23,3
289,26	-23,66
289,632	-24,27
290,003	-25,08
290,374	-25,45
290,745	-25,72
291,116	-25,83
291,487	-26,03
291,858	-26,1
292,229	-26,09
292,6	-26,04
292,971	-25,17
293,342	-24,24
293,713	-23,28
294,084	-22,28
294,455	-21,31
294,826	-20,82
295,196	-20,58
295,567	-20,57
295,938	-20,19
296,308	-19,59
296,679	-19,15
297,05	-18,77
297,42	-18,25
297,791	-17,73
298,161	-17,6
298,532	-17,18
298,902	-16,69
299,272	-16,21
299,643	-15,71
300,013	-15,22
300,383	-14,81
300,754	-14,89
301,124	-15,22
301,494	-15,69
301,864	-16,24
302,234	-16,76
302,604	-16,98
302,974	-17
303,344	-16,84
303,714	-16,73
304,084	-16,59
304,454	-16,37
304,824	-16,21
305,194	-16,18
305,563	-16,09
305,933	-15,83
306,303	-15,5
306,673	-14,94
307,042	-14,28
307,412	-13,57
307,781	-12,89
308,151	-12,56
308,521	-12,4
308,89	-12,07
309,259	-11,91
309,629	-11,8
309,998	-11,62
310,368	-11,54
310,737	-11,4
311,106	-11,23
311,475	-11,02
311,845	-10,92
312,214	-10,83
312,583	-10,67
312,952	-10,57
313,321	-10,49
313,69	-10,28
314,059	-10,33
314,428	-10,58
314,797	-10,95
315,166	-11,46
315,535	-11,99
315,904	-12,44
316,272	-12,75
316,641	-13,03
317,01	-12,99
317,379	-12,86
317,747	-12,62
318,116	-12,27
318,484	-12,03
318,853	-11,95
319,221	-11,94
319,59	-11,95
319,958	-11,91
320,327	-11,89
320,695	-11,78
321,063	-11,51
321,432	-11,23
321,8	-10,77
322,168	-10,45
322,536	-10,33
322,905	-9,93
323,273	-9,58
323,641	-9,23
324,009	-8,8
324,377	-8,48
324,745	-8,17
325,113	-7,73
325,481	-7,4
325,849	-7,22
326,216	-7,04
326,584	-6,73
326,952	-6,46
327,32	-6,16
327,687	-5,89
328,055	-5,58
328,423	-5,32
328,79	-5,15
329,158	-5,07
329,525	-5,08
329,893	-4,92
330,26	-4,66
330,628	-4,53
330,995	-4,27
331,362	-4,09
331,73	-4
332,097	-3,83
332,464	-3,7
332,831	-3,61
333,199	-3,57
333,566	-3,4
333,933	-3,09
334,3	-2,86
334,667	-2,72
335,034	-2,64
335,401	-2,58
335,768	-2,5
336,135	-2,52
336,502	-2,54
336,868	-2,52
337,235	-2,45
337,602	-2,35
337,969	-2,2
338,335	-2,06
338,702	-1,91
339,069	-1,78
339,435	-1,65
339,802	-1,48
340,168	-1,38
340,535	-1,26
340,901	-1,2
341,267	-1,18
341,634	-1,14
342	-1,07
342,366	-0,95
342,733	-0,88
343,099	-0,77
343,465	-0,72
343,831	-0,57
344,197	-0,34
344,563	-0,18
344,929	-0,04
345,295	0,1
345,661	0,26
346,027	0,39
346,393	0,44
346,759	0,58
347,125	0,69
347,491	0,75
347,856	0,84
348,222	0,84
348,588	0,99
348,953	1,13
349,319	1,1
349,684	1,11
350,05	1,09
350,415	1,18
350,781	1,28
351,146	1,41
351,512	1,5
351,877	1,51
352,242	1,53
352,608	1,6
352,973	1,66
353,338	1,7
353,703	1,72
354,068	1,74
354,433	1,78
354,798	1,8
355,164	1,83
355,528	1,9
355,893	1,94
356,258	1,95
356,623	2,04
356,988	2,25
357,353	2,35
357,718	2,48
358,082	2,6
358,447	2,66
358,812	2,76
359,176	2,85
359,541	2,98
359,905	3,12
360,27	3,19
360,634	3,25
360,999	3,35
361,363	3,46
361,728	3,58
362,092	3,65
362,456	3,74
362,821	3,86
363,185	3,99
363,549	4,11
363,913	4,17
364,277	4,2
364,641	4,18
365,005	4,26
365,369	4,35
365,733	4,45
366,097	4,6
366,461	4,68
366,825	4,77
367,189	4,84
367,553	4,91
367,916	5,05
368,28	5,17
368,644	5,22
369,007	5,27
369,371	5,38
369,734	5,48
370,098	5,58
370,461	5,65
370,825	5,68
371,188	5,77
371,552	5,86
371,915	5,95
372,278	6,1
372,642	6,18
373,005	6,29
373,368	6,4
373,731	6,46
374,094	6,58
374,457	6,7
374,82	6,83
375,183	6,92
375,546	6,97
375,909	7,02
376,272	7,15
376,635	7,28
376,998	7,37
377,361	7,48
377,723	7,61
378,086	7,7
378,449	7,77
378,811	7,81
379,174	7,93
379,537	8,02
379,899	8,07
380,262	8,16
380,624	8,23
380,987	8,29
381,349	8,38
381,711	8,44
382,074	8,49
382,436	8,54
382,798	8,7
383,16	8,79
383,522	8,83
383,884	8,85
384,247	8,83
384,609	8,86
384,971	8,89
385,333	8,9
385,695	8,95
386,056	9,02
386,418	9,06
386,78	9,08
387,142	9,1
387,504	9,12
387,865	9,18
388,227	9,19
388,589	9,2
388,95	9,24
389,312	9,24
389,673	9,29
390,035	9,3
390,396	9,27
390,758	9,26
391,119	9,3
391,48	9,35
391,842	9,42
392,203	9,44
392,564	9,45
392,925	9,5
393,286	9,51
393,648	9,54
394,009	9,6
394,37	9,62
394,731	9,66
395,092	9,7
395,452	9,72
395,813	9,77
396,174	9,8
396,535	9,8
396,896	9,83
397,257	9,86
397,617	9,92
397,978	9,94
398,338	9,98
398,699	10,03
399,06	10,09
399,42	10,1
399,781	10,13
400,141	10,16
400,501	10,14
400,862	10,16
401,222	10,16
401,582	10,18
401,943	10,23
402,303	10,27
402,663	10,29
403,023	10,31
403,383	10,31
403,743	10,33
404,103	10,35
404,463	10,36
404,823	10,4
405,183	10,38
405,543	10,4
405,903	10,43
406,262	10,44
406,622	10,4
406,982	10,44
407,342	10,48
407,701	10,48
408,061	10,53
408,42	10,55
408,78	10,59
409,139	10,59
409,499	10,57
409,858	10,57
410,217	10,61
410,577	10,59
410,936	10,59
411,295	10,6
411,655	10,63
412,014	10,61
412,373	10,58
412,732	10,58
413,091	10,58
413,45	10,52
413,809	10,48
414,168	10,45
414,527	10,4
414,886	10,36
415,245	10,31
415,603	10,27
415,962	10,22
416,321	10,19
416,679	10,13
417,038	10,09
417,397	10,07
417,755	9,99
418,114	9,98
418,472	9,97
418,831	9,96
419,189	9,93
419,547	9,93
419,906	9,91
420,264	9,89
420,622	9,87
420,981	9,86
421,339	9,87
421,697	9,87
422,055	9,88
422,413	9,91
422,771	9,93
423,129	9,96
423,487	10
423,845	10,03
424,203	10,09
424,56	10,14
424,918	10,17
425,276	10,26
425,634	10,29
425,991	10,31
426,349	10,33
426,707	10,38
427,064	10,42
427,422	10,46
427,779	10,5
428,137	10,56
428,494	10,64
428,851	10,66
429,209	10,68
429,566	10,69
429,923	10,66
430,28	10,63
430,637	10,64
430,995	10,61
431,352	10,6
431,709	10,58
432,066	10,58
432,423	10,58
432,78	10,56
433,137	10,56
433,493	10,56
433,85	10,61
434,207	10,58
434,564	10,58
434,92	10,57
435,277	10,58
435,634	10,58
435,99	10,54
436,347	10,54
436,703	10,55
437,06	10,57
437,416	10,58
437,773	10,59
438,129	10,56
438,485	10,59
438,841	10,58
439,198	10,59
439,554	10,59
439,91	10,6
440,266	10,6
440,622	10,6
440,978	10,6
441,334	10,54
441,69	10,54
442,046	10,51
442,402	10,51
442,758	10,5
443,113	10,48
443,469	10,49
443,825	10,49
444,181	10,5
444,536	10,5
444,892	10,51
445,247	10,54
445,603	10,56
445,958	10,57
446,314	10,58
446,669	10,6
447,025	10,61
447,38	10,64
447,735	10,65
448,09	10,67
448,446	10,7
448,801	10,72
449,156	10,74
449,511	10,77
449,866	10,8
450,221	10,85
450,576	10,9
450,931	10,95
451,286	10,99
451,641	11,01
451,995	11,04
452,35	11,07
452,705	11,08
453,06	11,1
453,414	11,1
453,769	11,1
454,123	11,1
454,478	11,07
454,832	11,06
455,187	11,03
455,541	11,02
455,896	10,99
456,25	10,96
456,604	10,94
456,958	10,93
457,313	10,93
457,667	10,91
458,021	10,9
458,375	10,92
458,729	10,93
459,083	10,95
459,437	10,95
459,791	10,94
460,145	10,95
460,499	10,94
460,852	10,92
461,206	10,93
461,56	10,93
461,914	10,95
462,267	10,95
462,621	10,99
462,974	11,01
463,328	11,02
463,681	11,06
464,035	11,1
464,388	11,14
464,742	11,16
465,095	11,17
465,448	11,19
465,801	11,18
466,155	11,17
466,508	11,15
466,861	11,13
467,214	11,14
467,567	11,13
467,92	11,15
468,273	11,19
468,626	11,18
468,979	11,2
469,332	11,19
469,684	11,17
470,037	11,18
470,39	11,19
470,743	11,22
471,095	11,23
471,448	11,22
471,8	11,22
472,153	11,24
472,505	11,26
472,858	11,26
473,21	11,28
473,562	11,3
473,915	11,32
474,267	11,35
474,619	11,35
474,971	11,35
475,324	11,34
475,676	11,35
476,028	11,36
476,38	11,36
476,732	11,36
477,084	11,38
477,436	11,38
477,787	11,36
478,139	11,33
478,491	11,34
478,843	11,34
479,195	11,33
479,546	11,28
479,898	11,21
480,249	11,16
480,601	11,11
480,952	11,07
481,304	11,05
481,655	11,04
482,007	11,03
482,358	11,02
482,709	11,02
483,061	11
483,412	10,99
483,763	10,97
484,114	10,96
484,465	10,94
484,816	10,92
485,167	10,93
485,518	10,93
485,869	10,92
486,22	10,92
486,571	10,91
486,922	10,93
487,272	10,94
487,623	10,96
487,974	10,96
488,324	10,98
488,675	10,97
489,025	10,98
489,376	10,99
489,726	11
490,077	11,01
490,427	11,02
490,778	11,05
491,128	11,06
491,478	11,1
491,828	11,14
492,179	11,16
492,529	11,18
492,879	11,18
493,229	11,2
493,579	11,23
493,929	11,23
494,279	11,26
494,629	11,28
494,979	11,3
495,328	11,35
495,678	11,38
496,028	11,43
496,378	11,45
496,727	11,48
497,077	11,51
497,426	11,52
497,776	11,53
498,125	11,53
498,475	11,53
498,824	11,55
499,174	11,56
499,523	11,58
499,872	11,59
500,221	11,62
500,571	11,63
500,92	11,63
501,269	11,68
501,618	11,67
501,967	11,67
502,316	11,69
502,665	11,7
503,014	11,71
503,363	11,72
503,711	11,74
504,06	11,75
504,409	11,75
504,758	11,75
505,106	11,75
505,455	11,76
505,803	11,76
506,152	11,75
506,5	11,75
506,849	11,74
507,197	11,73
507,546	11,72
507,894	11,73
508,242	11,74
508,59	11,73
508,939	11,72
509,287	11,72
509,635	11,7
509,983	11,71
510,331	11,72
510,679	11,72
511,027	11,72
511,375	11,71
511,723	11,71
512,07	11,73
512,418	11,75
512,766	11,77
513,114	11,79
513,461	11,8
513,809	11,8
514,156	11,78
514,504	11,78
514,851	11,8
515,199	11,76
515,546	11,75
515,893	11,75
516,241	11,74
516,588	11,75
516,935	11,75
517,282	11,77
517,63	11,78
517,977	11,79
518,324	11,78
518,671	11,78
519,018	11,79
519,365	11,77
519,711	11,76
520,058	11,77
520,405	11,76
520,752	11,76
521,099	11,78
521,445	11,83
521,792	11,85
522,138	11,82
522,485	11,84
522,832	11,85
523,178	11,86
523,524	11,88
523,871	11,87
524,217	11,87
524,563	11,81
524,91	11,76
525,256	11,7
525,602	11,67
525,948	11,66
526,294	11,65
526,64	11,63
526,986	11,62
527,332	11,6
527,678	11,61
528,024	11,6
528,37	11,6
528,716	11,6
529,061	11,59
529,407	11,59
529,753	11,59
530,098	11,59
530,444	11,59
530,789	11,58
531,135	11,6
531,48	11,6
531,826	11,62
532,171	11,65
532,516	11,68
532,862	11,72
533,207	11,74
533,552	11,75
533,897	11,77
534,242	11,79
534,587	11,81
534,932	11,83
535,277	11,85
535,622	11,85
535,967	11,86
536,312	11,88
536,657	11,89
537,001	11,91
537,346	11,92
537,691	11,91
538,035	11,89
538,38	11,87
538,724	11,87
539,069	11,87
539,413	11,86
539,758	11,86
540,102	11,86
540,446	11,87
540,791	11,88
541,135	11,88
541,479	11,89
541,823	11,89
542,167	11,88
542,512	11,88
542,856	11,86
543,2	11,85
543,543	11,83
543,887	11,85
544,231	11,86
544,575	11,87
544,919	11,89
545,262	11,95
545,606	11,98
545,95	11,99
546,293	12,01
546,637	12,02
546,98	12,05
547,324	12,07
547,667	12,11
548,011	12,13
548,354	12,14
548,697	12,13
549,04	12,14
549,384	12,13
549,727	12,12
550,07	12,13
550,413	12,13
550,756	12,16
551,099	12,16
551,442	12,19
551,785	12,18
552,128	12,2
552,47	12,19
552,813	12,18
553,156	12,18
553,499	12,19
553,841	12,2
554,184	12,19
554,526	12,17
554,869	12,12
555,211	12,11
555,554	12,11
555,896	12,11
556,238	12,08
556,581	12,07
556,923	12,06
557,265	12,06
557,607	12,07
557,949	12,08
558,291	12,06
558,633	12,04
558,975	12,02
559,317	11,99
559,659	11,95
560,001	11,93
560,343	11,91
560,685	11,86
561,026	11,82
561,368	11,79
561,71	11,77
562,051	11,74
562,393	11,74
562,734	11,69
563,076	11,67
563,417	11,65
563,759	11,63
564,1	11,62
564,441	11,61
564,782	11,57
565,124	11,54
565,465	11,52
565,806	11,51
566,147	11,49
566,488	11,46
566,829	11,46
567,17	11,43
567,511	11,42
567,851	11,43
568,192	11,41
568,533	11,41
568,874	11,41
569,214	11,42
569,555	11,37
569,895	11,39
570,236	11,37
570,576	11,36
570,917	11,35
571,257	11,35
571,598	11,36
571,938	11,35
572,278	11,36
572,618	11,34
572,959	11,34
573,299	11,34
573,639	11,35
573,979	11,33
574,319	11,34
574,659	11,32
574,999	11,32
575,339	11,32
575,678	11,32
576,018	11,31
576,358	11,29
576,698	11,28
577,037	11,27
577,377	11,26
577,716	11,25
578,056	11,25
578,395	11,2
578,735	11,16
579,074	11,15
579,413	11,11
579,753	11,09
580,092	11,06
580,431	11,02
580,77	11
581,109	10,99
581,448	10,95
581,787	10,9
582,126	10,9
582,465	10,91
582,804	10,88
583,143	10,88
583,482	10,87
583,82	10,88
584,159	10,86
584,498	10,86
584,836	10,86
585,175	10,85
585,514	10,89
585,852	10,88
586,19	10,88
586,529	10,88
586,867	10,88
587,205	10,88
587,544	10,93
587,882	10,92
588,22	10,94
588,558	10,95
588,896	10,98
589,234	10,94
589,572	10,92
589,91	10,9
590,248	10,85
590,586	10,83
590,924	10,82
591,262	10,84
591,599	10,82
591,937	10,82
592,275	10,82
592,612	10,78
592,95	10,8
593,287	10,81
593,625	10,84
593,962	10,85
594,299	10,87
594,637	10,86
594,974	10,89
595,311	10,88
595,648	10,89
595,985	10,9
596,322	10,9
596,659	10,91
596,996	10,93
597,333	10,94
597,67	10,95
598,007	10,96
598,344	10,95
598,681	10,98
599,017	10,99
599,354	10,98
599,691	10,99
600,027	11
600,364	11,01
600,7	11,01
601,037	11,04
601,373	11,04
601,71	11,03
602,046	11,04
602,382	11,05
602,718	11,05
603,054	11,04
603,391	11,06
603,727	11,05
604,063	11,06
604,399	11,09
604,735	11,11
605,071	11,12
605,406	11,13
605,742	11,12
606,078	11,15
606,414	11,18
606,749	11,19
607,085	11,19
607,421	11,19
607,756	11,2
608,092	11,17
608,427	11,15
608,762	11,14
609,098	11,12
609,433	11,11
609,768	11,11
610,104	11,09
610,439	11,08
610,774	11,11
611,109	11,09
611,444	11,07
611,779	11,05
612,114	11,03
612,449	11,03
612,784	11,01
613,118	10,98
613,453	10,98
613,788	10,97
614,123	10,93
614,457	10,88
614,792	10,84
615,126	10,85
615,461	10,81
615,795	10,8
616,13	10,78
616,464	10,75
616,798	10,73
617,132	10,76
617,467	10,77
617,801	10,76
618,135	10,76
618,469	10,77
618,803	10,8
619,137	10,81
619,471	10,79
619,805	10,8
620,139	10,78
620,472	10,77
620,806	10,77
621,14	10,79
621,473	10,77
621,807	10,75
622,141	10,75
622,474	10,77
622,808	10,76
623,141	10,78
623,474	10,81
623,808	10,83
624,141	10,86
624,474	10,87
624,807	10,88
625,141	10,89
625,474	10,9
625,807	10,89
626,14	10,89
626,473	10,92
626,806	10,93
627,138	10,95
627,471	10,94
627,804	10,94
628,137	10,94
628,469	10,97
628,802	11
629,135	11
629,467	11,02
629,8	11,03
630,132	11,02
630,465	11
630,797	10,96
631,129	10,92
631,461	10,92
631,794	10,91
632,126	10,91
632,458	10,88
632,79	10,88
633,122	10,89
633,454	10,89
633,786	10,87
634,118	10,86
634,45	10,86
634,781	10,85
635,113	10,86
635,445	10,87
635,777	10,89
636,108	10,89
636,44	10,86
636,771	10,87
637,103	10,87
637,434	10,87
637,765	10,88
638,097	10,87
638,428	10,84
638,759	10,84
639,09	10,83
639,422	10,84
639,753	10,83
640,084	10,76
640,415	10,74
640,746	10,72
641,077	10,74
641,407	10,73
641,738	10,75
642,069	10,73
642,4	10,69
642,73	10,66
643,061	10,62
643,392	10,61
643,722	10,59
644,053	10,59
644,383	10,59
644,713	10,62
645,044	10,66
645,374	10,71
645,704	10,73
646,034	10,73
646,365	10,72
646,695	10,74
647,025	10,81
647,355	10,8
647,685	10,84
648,015	10,84
648,344	10,82
648,674	10,79
649,004	10,79
649,334	10,81
649,663	10,83
649,993	10,88
650,323	10,92
650,652	10,93
650,982	10,94
651,311	10,95
651,64	10,92
651,97	10,91
652,299	10,9
652,628	10,91
652,958	10,93
653,287	10,95
653,616	10,95
653,945	10,9
654,274	10,9
654,603	10,88
654,932	10,89
655,261	10,91
655,589	10,95
655,918	10,97
656,247	11,01
656,576	11,05
656,904	11,08
657,233	11,12
657,561	11,15
657,89	11,18
658,218	11,22
658,547	11,25
658,875	11,27
659,203	11,29
659,532	11,27
659,86	11,27
660,188	11,25
660,516	11,24
660,844	11,27
661,172	11,29
661,5	11,3
661,828	11,28
662,156	11,29
662,484	11,28
662,811	11,29
663,139	11,27
663,467	11,23
663,794	11,23
664,122	11,2
664,45	11,15
664,777	11,14
665,104	11,13
665,432	11,11
665,759	11,08
666,086	11,06
666,414	11,05
666,741	11,06
667,068	11,08
667,395	11,1
667,722	11,13
668,049	11,13
668,376	11,16
668,703	11,22
669,03	11,27
669,357	11,29
669,683	11,26
670,01	11,23
670,337	11,23
670,663	11,22
670,99	11,23
671,317	11,26
671,643	11,28
671,969	11,26
672,296	11,24
672,622	11,25
672,948	11,24
673,275	11,25
673,601	11,26
673,927	11,25
674,253	11,2
674,579	11,16
674,905	11,13
675,231	11,08
675,557	11,04
675,883	11,01
676,209	11,01
676,534	11,05
676,86	11,12
677,186	11,18
677,511	11,2
677,837	11,2
678,162	11,24
678,488	11,24
678,813	11,3
679,139	11,37
679,464	11,4
679,789	11,4
680,114	11,4
680,44	11,38
680,765	11,37
681,09	11,41
681,415	11,39
681,74	11,4
682,065	11,42
682,39	11,44
682,714	11,43
683,039	11,41
683,364	11,42
683,689	11,37
684,013	11,3
684,338	11,25
684,662	11,24
684,987	11,2
685,311	11,22
685,636	11,15
685,96	11,07
686,284	11,05
686,608	11
686,933	10,96
687,257	10,96
687,581	10,97
687,905	10,99
688,229	11,06
688,553	11,11
688,877	11,09
689,201	11,01
689,524	11,01
689,848	11,03
690,172	11,05
690,496	11,06
690,819	11,07
691,143	11,07
691,466	11,02
691,79	10,97
692,113	10,92
692,436	10,93
692,76	10,97
693,083	10,97
693,406	10,99
693,729	10,96
694,053	10,93
694,376	10,93
694,699	10,9
695,022	10,9
695,344	10,89
695,667	10,94
695,99	11,1
696,313	11,2
696,636	11,3
696,958	11,35
697,281	11,39
697,604	11,44
697,926	11,51
698,249	11,57
698,571	11,63
698,893	11,63
699,216	11,6
699,538	11,54
699,86	11,53
700,182	11,59
700,504	11,62
700,827	11,61
701,149	11,59
701,471	11,59
701,793	11,56
702,114	11,54
702,436	11,48
702,758	11,34
703,08	11,16
703,401	11,03
703,723	10,95
704,045	10,91
704,366	10,85
704,688	10,78
705,009	10,66
705,331	10,57
705,652	10,58
705,973	10,58
706,294	10,58
706,616	10,55
706,937	10,53
707,258	10,54
707,579	10,54
707,9	10,57
708,221	10,61
708,542	10,63
708,863	10,67
709,183	10,78
709,504	10,89
709,825	10,97
710,145	11,05
710,466	11,08
710,787	11,12
711,107	11,19
711,427	11,2
711,748	11,27
712,068	11,35
712,388	11,41
712,709	11,5
713,029	11,61
713,349	11,67
713,669	11,67
713,989	11,72
714,309	11,81
714,629	11,84
714,949	11,88
715,269	11,92
715,589	11,92
715,908	11,88
716,228	11,8
716,548	11,78
716,867	11,73
717,187	11,73
717,506	11,74
717,826	11,69
718,145	11,74
718,465	11,78
718,784	11,75
719,103	11,68
719,422	11,64
719,741	11,61
720,061	11,65
720,38	11,76
720,699	11,81
721,018	11,84
721,336	11,9
721,655	11,95
721,974	12,04
722,293	12,13
722,612	12,31
722,93	12,49
723,249	12,61
723,567	12,8
723,886	12,81
724,204	12,88
724,523	13,05
724,841	13,2
725,159	13,31
725,477	13,54
725,796	13,74
726,114	14,04
726,432	14,27
726,75	14,41
727,068	14,53
727,386	14,66
727,704	14,82
728,022	14,97
728,339	15,09
728,657	15,15
728,975	15,24
729,292	15,3
729,61	15,39
729,928	15,55
730,245	15,67
730,562	15,86
730,88	16,03
731,197	16,17
731,514	16,24
731,832	16,33
732,149	16,35
732,466	16,43
732,783	16,42
733,1	16,46
733,417	16,56
733,734	16,7
734,051	16,79
734,368	16,87
734,684	16,91
735,001	16,97
735,318	17,02
735,634	17,03
735,951	17,09
736,268	17,2
736,584	17,28
736,9	17,33
737,217	17,37
737,533	17,42
737,849	17,45
738,166	17,55
738,482	17,74
738,798	17,95
739,114	18,21
739,43	18,39
739,746	18,56
740,062	18,75
740,378	18,86
740,693	19
741,009	19,21
741,325	19,38
741,641	19,44
741,956	19,62
742,272	19,89
742,587	19,98
742,903	20,09
743,218	20,15
743,533	20,25
743,849	20,37
744,164	20,42
744,479	20,52
744,794	20,69
745,109	20,72
745,424	20,71
745,739	20,6
746,054	20,55
746,369	20,45
746,684	20,48
746,999	20,46
747,313	20,46
747,628	20,42
747,943	20,43
748,257	20,58
748,572	20,7
748,886	20,8
749,201	21,02
749,515	21,07
749,829	21,17
750,144	21,24
750,458	21,24
750,772	21,24
751,086	21,23
751,4	21,22
751,714	21,25
752,028	21,34
752,342	21,43
752,656	21,55
752,97	21,74
753,284	21,75
753,597	21,9
753,911	22,04
754,225	22,14
754,538	22,24
754,852	22,27
755,165	22,3
755,478	22,37
755,792	22,29
756,105	22,35
756,418	22,39
756,731	22,46
757,045	22,56
757,358	22,7
757,671	22,87
757,984	23,06
758,297	23,14
758,609	23,23
758,922	23,32
759,235	23,36
759,548	23,44
759,86	23,38
760,173	23,15
760,486	22,94
760,798	22,75
761,111	22,62
761,423	22,55
761,735	22,5
762,048	22,45
762,36	22,46
762,672	22,55
762,984	22,65
763,296	22,67
763,608	22,76
763,92	22,82
764,232	22,85
764,544	22,87
764,856	23,06
765,168	23,17
765,48	23,29
765,791	23,43
766,103	23,45
766,414	23,67
766,726	23,97
767,037	24,39
767,349	24,84
767,66	25,26
767,972	25,74
768,283	26,15
768,594	26,39
768,905	26,7
769,216	26,85
769,527	27,06
769,838	27,31
770,149	27,49
770,46	27,79
770,771	28,05
771,082	28,18
771,393	28,28
771,703	28,44
772,014	28,59
772,324	28,73
772,635	28,98
772,945	29,09
773,256	29,3
773,566	29,49
773,877	29,5
774,187	29,55
774,497	29,65
774,807	29,92
775,117	30,19
775,427	30,32
775,737	30,46
776,047	30,55
776,357	30,75
776,667	31,05
776,977	31,22
777,287	31,4
777,596	31,54
777,906	31,67
778,216	31,72
778,525	31,84
778,835	31,9
779,144	32,16
779,453	32,49
779,763	32,65
780,072	32,61
780,381	32,99
780,69	33,22
781	33,46
781,309	33,4
781,618	33,54
781,927	33,75
782,235	34,09
782,544	34,41
782,853	34,8
783,162	35,02
783,471	34,99
783,779	35,05
784,088	35,15
784,396	35,13
784,705	35,1
785,013	34,97
785,322	34,86
785,63	34,49
785,938	34,09
786,246	33,85
786,554	33,79
786,863	33,46
787,171	33,37
787,479	33,17
787,787	33,19
788,094	33,24
788,402	33,22
788,71	33,28
789,018	33,29
789,326	33,09
789,633	32,96
789,941	33,12
790,248	33,15
790,556	33,25
790,863	33,28
791,171	33,24
791,478	33,27
791,785	33,39
792,092	33,57
792,399	33,78
792,707	33,81
793,014	33,63
793,321	33,87
793,628	34,27
793,934	34,48
794,241	34,51
794,548	34,4
794,855	34,36
795,161	34,13
795,468	33,8
795,775	33,61
796,081	33,47
796,388	33,36
796,694	33,52
797	33,45
797,307	33,48
797,613	33,63
797,919	33,84
798,225	33,99
798,531	34,12
798,837	34,34
799,143	34,52
799,449	35,06
799,755	35,19
800,061	35,11
800,367	35,16
800,672	35,23
800,978	35,49
801,284	35,84
801,589	36
801,895	36,19
802,2	36,35
802,506	36,56
802,811	36,56
803,116	36,41
803,421	36,56
803,727	36,67
804,032	36,77
804,337	36,61
804,642	36,56
804,947	36,43
805,252	36,24
805,556	36,49
805,861	36,38
806,166	36,23
806,471	36,07
806,775	36,15
807,08	36,27
807,384	36,41
807,689	36,44
807,993	36,59
808,298	36,91
808,602	37,2
808,906	37,36
809,211	37,39
809,515	37,45
809,819	37,54
810,123	37,71
810,427	37,93
810,731	38,19
811,035	38,38
811,338	38,29
811,642	38,32
811,946	38,15
812,25	38,35
812,553	38,49
812,857	38,62
813,16	38,76
813,464	38,87
813,767	38,9
814,07	38,92
814,374	38,99
814,677	39,01
814,98	38,72
815,283	38,39
815,586	38,29
815,889	38,19
816,192	38,03
816,495	37,51
816,798	36,92
817,101	36,54
817,404	36,26
817,706	36,23
818,009	35,77
818,312	35,09
818,614	33,84
818,917	32,16
819,219	29,88
819,521	27,79
819,824	26,13
820,126	24,96
820,428	24,22
820,73	23,7
821,032	23,3
821,334	23,03
821,636	22,87
821,938	22,77
822,24	22,75
822,542	22,67
822,844	22,74
823,145	22,74
823,447	22,67
823,749	22,58
824,05	22,45
824,352	22,39
824,653	22,36
824,955	22,32
825,256	22,42
825,557	22,71
825,858	23,08
826,16	23,54
826,461	23,98
826,762	24,4
827,063	24,84
827,364	25,25
827,665	25,76
827,965	26,28
828,266	26,68
828,567	26,91
828,868	27,23
829,168	27,39
829,469	27,56
829,769	27,73
830,07	27,96
830,37	28,36
830,67	28,73
830,971	29,11
831,271	29,58
831,571	29,88
831,871	30,13
832,171	30,06
832,471	29,99
832,771	30,01
833,071	29,95
833,371	29,92
833,671	30,02
833,971	30,11
834,27	30,1
834,57	30,5
834,869	30,81
835,169	31
835,468	31,18
835,768	31,52
836,067	31,89
836,367	32,28
836,666	32,67
836,965	33,21
837,264	33,93
837,563	34,69
837,862	35,53
838,161	36,3
838,46	37,36
838,759	38,27
839,058	39,22
839,356	40,2
839,655	40,94
839,954	41,76
840,252	42,42
840,551	43,01
840,849	43,26
841,148	43,72
841,446	44,08
841,744	44,46
842,043	44,75
842,341	45,36
842,639	45,76
842,937	46,08
843,235	46,67
843,533	46,87
843,831	47,68
844,129	48,38
844,427	49,19
844,724	50,12
845,022	51,2
845,32	52,18
845,617	52,99
845,915	53,91
846,212	54,3
846,51	54,85
846,807	55,57
847,104	56,17
847,402	56,69
847,699	57,42
847,996	57,39
848,293	57,62
848,59	57,84
848,887	58,27
849,184	58,73
849,481	58,74
849,778	59,11
850,074	59,28
850,371	59,89
850,668	60,8
850,964	61,45
851,261	62,08
851,557	62,67
851,854	63,18
852,15	63,73
852,446	64,09
852,743	63,8
853,039	63,84
853,335	64,34
853,631	64,62
853,927	64,7
854,223	64,79
854,519	65,11
854,815	65,3
855,111	64,97
855,406	64,57
855,702	64,55
855,998	64,52
856,293	64,19
856,589	63,83
856,884	63,63
857,18	64,17
857,475	64,55
857,77	64,53
858,066	64,8
858,361	64,69
858,656	65,26
858,951	65,95
859,246	66,12
859,541	65,54
859,836	65,16
860,131	64,99
860,426	65,21
860,72	65,47
861,015	65,3
861,31	65,56
861,604	66,22
861,899	66,54
862,193	67
862,487	67,38
862,782	67,2
863,076	67,15
863,37	66,54
863,664	66,47
863,959	67,26
864,253	67,64
864,547	67,45
864,841	66,43
865,135	66,3
865,428	66,43
865,722	67
866,016	67,09
866,31	67,21
866,603	67,25
866,897	67,12
867,19	67,18
867,484	67,21
867,777	67,2
868,07	67,18
868,364	66,78
868,657	66,21
868,95	66,53
869,243	66,39
869,536	66,59
869,829	66,91
870,122	66,13
870,415	65,17
870,708	65,51
871	66,42
871,293	66,55
871,586	66,11
871,878	65,62
872,171	65,31
872,463	64,84
872,756	64,76
873,048	64,04
873,341	63,67
873,633	63,61
873,925	63,36
874,217	63,24
874,509	63,34
874,801	64,09
875,093	64,26
875,385	64,38
875,677	64,08
875,969	62,89
