Data from zc74019_4_Reflection_00002.txt Node
Date: Thu Mar 12 14:43:28 ART 2020
User: Ana
Spectrometer: USB2E3644
Trigger mode: 4
Integration Time (sec): 5,000000E-2
Scans to average: 10
Electric dark correction enabled: true
Nonlinearity correction enabled: false
Boxcar width: 10
XAxis mode: Wavelengths
Number of Pixels in Spectrum: 2048
>>>>>Begin Spectral Data<<<<<
178,315	96,32
178,696	83,78
179,076	64,98
179,457	54,44
179,838	50
180,218	58,73
180,599	3,33
180,979	55,17
181,36	23,33
181,74	102,38
182,121	132,69
182,501	153,77
182,881	167,81
183,262	154,85
183,642	151,14
184,022	149,37
184,402	150,85
184,783	151,28
185,163	145,39
185,543	140,45
185,923	139,35
186,303	136,91
186,683	134,9
187,063	133,16
187,443	135,03
187,823	144,13
188,203	153,86
188,583	156,93
188,963	155,09
189,343	153,3
189,723	151,36
190,102	149,61
190,482	144,84
190,862	142,77
191,242	143,33
191,621	142,72
192,001	139,89
192,38	137,63
192,76	134,07
193,14	130,55
193,519	129,75
193,898	130,14
194,278	130,75
194,657	129,56
195,037	128,94
195,416	127,97
195,795	126,36
196,175	125,32
196,554	124,58
196,933	125,1
197,312	125,85
197,692	126,01
198,071	125,23
198,45	124,34
198,829	125,93
199,208	126,76
199,587	126,36
199,966	124,64
200,345	123
200,724	122,99
201,103	124,31
201,482	124,24
201,86	122,47
202,239	120,19
202,618	118,5
202,997	116,25
203,375	113,55
203,754	111,61
204,133	110,11
204,511	107,79
204,89	106,84
205,269	106,25
205,647	105,45
206,026	106,22
206,404	109,44
206,782	110,38
207,161	110,64
207,539	110,88
207,918	111,39
208,296	111,18
208,674	111,74
209,052	113,85
209,431	116,76
209,809	120,49
210,187	124,02
210,565	126,51
210,943	128,07
211,321	130,66
211,699	131,05
212,077	130,3
212,455	132,6
212,833	134,66
213,211	134,57
213,589	137,44
213,967	137,87
214,345	133,52
214,722	127,64
215,1	125,83
215,478	125,76
215,855	127,95
216,233	128,94
216,611	126,87
216,988	123,11
217,366	119,34
217,743	118,38
218,121	118,31
218,498	118,2
218,876	118,41
219,253	117,54
219,631	119,2
220,008	121,19
220,385	121,71
220,762	120,57
221,14	121,12
221,517	118,47
221,894	116,91
222,271	118,44
222,648	123,74
223,025	127,01
223,402	127,25
223,78	125,33
224,157	125,66
224,533	129,4
224,91	135,75
225,287	142,62
225,664	148,08
226,041	154,05
226,418	160,71
226,795	168,47
227,171	178,72
227,548	183,33
227,925	184,14
228,301	188,08
228,678	191,3
229,055	193,12
229,431	199,14
229,808	203,18
230,184	204,77
230,561	209,52
230,937	218,5
231,313	229,94
231,69	235,65
232,066	240,2
232,442	232,01
232,819	225,58
233,195	221,41
233,571	220,85
233,947	216,67
234,323	215,99
234,699	215,21
235,075	214,44
235,451	221,96
235,827	233,12
236,203	246,43
236,579	263,24
236,955	284,56
237,331	308,06
237,707	355,08
238,083	436,51
238,459	573,48
238,834	1010,22
239,21	6216,67
239,586	-1419,23
239,961	-814,6
240,337	-585,76
240,713	-504,1
241,088	-462,88
241,464	-428,4
241,839	-388,35
242,215	-322,98
242,59	-254,26
242,965	-176,78
243,341	-121,6
243,716	-88,46
244,091	-73,3
244,467	-64,85
244,842	-58,13
245,217	-53,74
245,592	-52,02
245,967	-52,69
246,343	-52,42
246,718	-51,91
247,093	-52,81
247,468	-54,13
247,843	-53,56
248,218	-51,25
248,593	-47,47
248,967	-43,86
249,342	-42,11
249,717	-40,94
250,092	-40,71
250,467	-41,8
250,841	-44,89
251,216	-50,65
251,591	-58,39
251,965	-64,72
252,34	-69,72
252,714	-76,75
253,089	-80,83
253,463	-82,27
253,838	-80,49
254,212	-77,77
254,587	-75,79
254,961	-69,63
255,335	-60,82
255,71	-51,55
256,084	-41,64
256,458	-35,03
256,832	-30,42
257,206	-27,69
257,581	-26,27
257,955	-25,02
258,329	-23,58
258,703	-22,35
259,077	-21,27
259,451	-20,49
259,825	-20,26
260,199	-20,55
260,572	-20,13
260,946	-20,01
261,32	-19,82
261,694	-19,51
262,068	-19,27
262,441	-18,86
262,815	-18,83
263,189	-18,62
263,562	-18,95
263,936	-20,7
264,309	-22,89
264,683	-25,18
265,056	-26,42
265,43	-27
265,803	-27,15
266,176	-27,08
266,55	-26,87
266,923	-26,68
267,296	-26,14
267,67	-25,03
268,043	-23,85
268,416	-22,7
268,789	-21,28
269,162	-19,93
269,535	-18,81
269,908	-18,2
270,281	-17,86
270,654	-17,94
271,027	-18,62
271,4	-18,9
271,773	-18,82
272,146	-18,64
272,519	-18,51
272,891	-18,5
273,264	-18,27
273,637	-18,13
274,01	-17,81
274,382	-18,08
274,755	-18,25
275,127	-18,27
275,5	-18,46
275,872	-18,66
276,245	-18,8
276,617	-19,37
276,99	-19,73
277,362	-20,1
277,734	-20,06
278,107	-19,65
278,479	-18,93
278,851	-18,41
279,223	-18,2
279,596	-18,13
279,968	-18,18
280,34	-18,13
280,712	-17,65
281,084	-17,06
281,456	-16,3
281,828	-15,6
282,2	-14,49
282,572	-13,31
282,944	-12,5
283,315	-12,04
283,687	-11,56
284,059	-11,39
284,431	-11,21
284,802	-11,01
285,174	-10,65
285,546	-10,28
285,917	-9,95
286,289	-9,7
286,66	-9,44
287,032	-9,1
287,403	-8,68
287,775	-8,33
288,146	-8,27
288,518	-8,33
288,889	-8,23
289,26	-8,35
289,632	-8,61
290,003	-8,87
290,374	-9,13
290,745	-9,22
291,116	-9,16
291,487	-9,01
291,858	-8,68
292,229	-8,48
292,6	-8,32
292,971	-8,04
293,342	-7,81
293,713	-7,35
294,084	-6,97
294,455	-6,5
294,826	-6,24
295,196	-6,35
295,567	-6,55
295,938	-6,38
296,308	-6,1
296,679	-5,86
297,05	-5,54
297,42	-5,14
297,791	-4,77
298,161	-4,68
298,532	-4,51
298,902	-4,42
299,272	-4,44
299,643	-4,39
300,013	-4,05
300,383	-3,78
300,754	-3,74
301,124	-3,78
301,494	-3,99
301,864	-4,21
302,234	-4,44
302,604	-4,36
302,974	-4,15
303,344	-3,83
303,714	-3,55
304,084	-3,21
304,454	-3,16
304,824	-3,11
305,194	-3,25
305,563	-3,36
305,933	-3,28
306,303	-3,17
306,673	-2,91
307,042	-2,51
307,412	-2,28
307,781	-2,09
308,151	-1,98
308,521	-1,77
308,89	-1,46
309,259	-1,4
309,629	-1,28
309,998	-1,1
310,368	-0,98
310,737	-0,83
311,106	-0,85
311,475	-0,93
311,845	-1,13
312,214	-1,09
312,583	-1,06
312,952	-1,06
313,321	-0,96
313,69	-0,73
314,059	-0,63
314,428	-0,66
314,797	-0,79
315,166	-0,96
315,535	-1,2
315,904	-1,45
316,272	-1,69
316,641	-1,9
317,01	-1,84
317,379	-1,75
317,747	-1,65
318,116	-1,65
318,484	-1,61
318,853	-1,49
319,221	-1,42
319,59	-1,33
319,958	-1,32
320,327	-1,36
320,695	-1,34
321,063	-1,26
321,432	-1,26
321,8	-1,1
322,168	-0,91
322,536	-0,85
322,905	-0,49
323,273	-0,15
323,641	0,17
324,009	0,42
324,377	0,59
324,745	0,75
325,113	0,9
325,481	1,07
325,849	1,09
326,216	1,16
326,584	1,37
326,952	1,63
327,32	1,88
327,687	2,08
328,055	2,38
328,423	2,62
328,79	2,7
329,158	2,78
329,525	2,74
329,893	2,85
330,26	3,08
330,628	3,05
330,995	3,13
331,362	3,13
331,73	3,13
332,097	3,13
332,464	3,19
332,831	3,29
333,199	3,35
333,566	3,63
333,933	3,82
334,3	3,92
334,667	3,99
335,034	4
335,401	4,05
335,768	4,1
336,135	4,25
336,502	4,38
336,868	4,49
337,235	4,62
337,602	4,6
337,969	4,67
338,335	4,8
338,702	4,87
339,069	5,01
339,435	5,16
339,802	5,37
340,168	5,48
340,535	5,54
340,901	5,52
341,267	5,42
341,634	5,41
342	5,45
342,366	5,56
342,733	5,62
343,099	5,68
343,465	5,67
343,831	5,67
344,197	5,71
344,563	5,74
344,929	5,75
345,295	5,87
345,661	6
346,027	6,03
346,393	6,05
346,759	6,03
347,125	6,05
347,491	6,05
347,856	6,1
348,222	6,11
348,588	6,21
348,953	6,33
349,319	6,35
349,684	6,37
350,05	6,35
350,415	6,44
350,781	6,53
351,146	6,64
351,512	6,72
351,877	6,75
352,242	6,79
352,608	6,88
352,973	6,94
353,338	6,93
353,703	6,99
354,068	7,01
354,433	7,1
354,798	7,16
355,164	7,24
355,528	7,26
355,893	7,33
356,258	7,34
356,623	7,45
356,988	7,63
357,353	7,75
357,718	7,83
358,082	7,83
358,447	7,8
358,812	7,88
359,176	7,95
359,541	8,12
359,905	8,2
360,27	8,25
360,634	8,24
360,999	8,26
361,363	8,29
361,728	8,35
362,092	8,41
362,456	8,43
362,821	8,47
363,185	8,51
363,549	8,53
363,913	8,57
364,277	8,56
364,641	8,56
365,005	8,62
365,369	8,66
365,733	8,76
366,097	8,87
366,461	8,91
366,825	8,98
367,189	8,95
367,553	8,98
367,916	9,08
368,28	9,26
368,644	9,39
369,007	9,51
369,371	9,62
369,734	9,66
370,098	9,75
370,461	9,82
370,825	9,88
371,188	9,98
371,552	10,1
371,915	10,15
372,278	10,22
372,642	10,29
373,005	10,44
373,368	10,56
373,731	10,64
374,094	10,71
374,457	10,77
374,82	10,88
375,183	10,97
375,546	11,01
375,909	11
376,272	11,1
376,635	11,18
376,998	11,26
377,361	11,35
377,723	11,43
378,086	11,48
378,449	11,58
378,811	11,67
379,174	11,78
379,537	11,83
379,899	11,86
380,262	11,9
380,624	11,91
380,987	11,95
381,349	12,02
381,711	12,11
382,074	12,16
382,436	12,23
382,798	12,38
383,16	12,43
383,522	12,45
383,884	12,48
384,247	12,56
384,609	12,61
384,971	12,65
385,333	12,67
385,695	12,7
386,056	12,7
386,418	12,71
386,78	12,67
387,142	12,7
387,504	12,72
387,865	12,73
388,227	12,72
388,589	12,72
388,95	12,73
389,312	12,72
389,673	12,74
390,035	12,75
390,396	12,7
390,758	12,74
391,119	12,8
391,48	12,8
391,842	12,79
392,203	12,77
392,564	12,8
392,925	12,86
393,286	12,88
393,648	12,93
394,009	12,96
394,37	12,99
394,731	13,04
395,092	13,11
395,452	13,12
395,813	13,17
396,174	13,22
396,535	13,2
396,896	13,23
397,257	13,25
397,617	13,26
397,978	13,29
398,338	13,32
398,699	13,35
399,06	13,42
399,42	13,4
399,781	13,46
400,141	13,5
400,501	13,5
400,862	13,51
401,222	13,52
401,582	13,55
401,943	13,59
402,303	13,6
402,663	13,6
403,023	13,64
403,383	13,63
403,743	13,61
404,103	13,68
404,463	13,72
404,823	13,76
405,183	13,8
405,543	13,82
405,903	13,83
406,262	13,83
406,622	13,81
406,982	13,83
407,342	13,81
407,701	13,82
408,061	13,85
408,42	13,91
408,78	13,92
409,139	13,93
409,499	13,94
409,858	13,96
410,217	13,97
410,577	13,97
410,936	14
411,295	14,02
411,655	14,01
412,014	13,98
412,373	13,97
412,732	13,93
413,091	13,9
413,45	13,9
413,809	13,86
414,168	13,84
414,527	13,83
414,886	13,78
415,245	13,76
415,603	13,71
415,962	13,64
416,321	13,61
416,679	13,6
417,038	13,56
417,397	13,54
417,755	13,51
418,114	13,49
418,472	13,45
418,831	13,42
419,189	13,41
419,547	13,42
419,906	13,41
420,264	13,41
420,622	13,4
420,981	13,38
421,339	13,4
421,697	13,39
422,055	13,41
422,413	13,43
422,771	13,45
423,129	13,47
423,487	13,5
423,845	13,53
424,203	13,55
424,56	13,58
424,918	13,61
425,276	13,65
425,634	13,7
425,991	13,74
426,349	13,8
426,707	13,85
427,064	13,87
427,422	13,9
427,779	13,96
428,137	14
428,494	14,08
428,851	14,1
429,209	14,15
429,566	14,14
429,923	14,15
430,28	14,14
430,637	14,12
430,995	14,12
431,352	14,12
431,709	14,12
432,066	14,14
432,423	14,14
432,78	14,18
433,137	14,17
433,493	14,18
433,85	14,2
434,207	14,16
434,564	14,16
434,92	14,16
435,277	14,15
435,634	14,16
435,99	14,14
436,347	14,12
436,703	14,12
437,06	14,13
437,416	14,15
437,773	14,15
438,129	14,14
438,485	14,16
438,841	14,16
439,198	14,15
439,554	14,15
439,91	14,17
440,266	14,15
440,622	14,16
440,978	14,17
441,334	14,15
441,69	14,15
442,046	14,15
442,402	14,14
442,758	14,16
443,113	14,17
443,469	14,19
443,825	14,2
444,181	14,19
444,536	14,21
444,892	14,21
445,247	14,23
445,603	14,27
445,958	14,29
446,314	14,31
446,669	14,31
447,025	14,32
447,38	14,32
447,735	14,35
448,09	14,35
448,446	14,34
448,801	14,35
449,156	14,4
449,511	14,44
449,866	14,46
450,221	14,47
450,576	14,47
450,931	14,5
451,286	14,56
451,641	14,6
451,995	14,63
452,35	14,69
452,705	14,7
453,06	14,69
453,414	14,69
453,769	14,7
454,123	14,72
454,478	14,73
454,832	14,75
455,187	14,72
455,541	14,71
455,896	14,71
456,25	14,7
456,604	14,67
456,958	14,66
457,313	14,67
457,667	14,67
458,021	14,68
458,375	14,71
458,729	14,72
459,083	14,72
459,437	14,74
459,791	14,73
460,145	14,74
460,499	14,75
460,852	14,75
461,206	14,77
461,56	14,75
461,914	14,76
462,267	14,75
462,621	14,77
462,974	14,8
463,328	14,84
463,681	14,87
464,035	14,91
464,388	14,93
464,742	14,94
465,095	14,96
465,448	14,97
465,801	14,93
466,155	14,93
466,508	14,92
466,861	14,9
467,214	14,9
467,567	14,89
467,92	14,91
468,273	14,93
468,626	14,93
468,979	14,95
469,332	14,96
469,684	14,97
470,037	14,99
470,39	14,98
470,743	14,98
471,095	14,99
471,448	15
471,8	15,02
472,153	15,05
472,505	15,06
472,858	15,06
473,21	15,09
473,562	15,09
473,915	15,12
474,267	15,14
474,619	15,15
474,971	15,15
475,324	15,15
475,676	15,15
476,028	15,16
476,38	15,18
476,732	15,19
477,084	15,2
477,436	15,19
477,787	15,19
478,139	15,18
478,491	15,19
478,843	15,19
479,195	15,16
479,546	15,11
479,898	15,1
480,249	15,06
480,601	15,05
480,952	15,03
481,304	15,03
481,655	15,01
482,007	15
482,358	15,01
482,709	15,02
483,061	15,01
483,412	14,99
483,763	14,99
484,114	14,98
484,465	14,97
484,816	14,97
485,167	14,96
485,518	14,97
485,869	14,97
486,22	14,97
486,571	14,98
486,922	15
487,272	15,01
487,623	15,03
487,974	15,03
488,324	15,04
488,675	15,04
489,025	15,07
489,376	15,08
489,726	15,08
490,077	15,09
490,427	15,11
490,778	15,14
491,128	15,15
491,478	15,16
491,828	15,18
492,179	15,2
492,529	15,23
492,879	15,25
493,229	15,26
493,579	15,28
493,929	15,29
494,279	15,3
494,629	15,31
494,979	15,33
495,328	15,37
495,678	15,4
496,028	15,44
496,378	15,45
496,727	15,47
497,077	15,49
497,426	15,5
497,776	15,5
498,125	15,49
498,475	15,49
498,824	15,51
499,174	15,52
499,523	15,52
499,872	15,56
500,221	15,57
500,571	15,59
500,92	15,6
501,269	15,62
501,618	15,63
501,967	15,63
502,316	15,64
502,665	15,64
503,014	15,66
503,363	15,66
503,711	15,67
504,06	15,66
504,409	15,67
504,758	15,69
505,106	15,72
505,455	15,72
505,803	15,72
506,152	15,7
506,5	15,72
506,849	15,76
507,197	15,74
507,546	15,75
507,894	15,74
508,242	15,74
508,59	15,75
508,939	15,74
509,287	15,74
509,635	15,75
509,983	15,75
510,331	15,77
510,679	15,79
511,027	15,8
511,375	15,83
511,723	15,83
512,07	15,84
512,418	15,84
512,766	15,87
513,114	15,9
513,461	15,93
513,809	15,94
514,156	15,93
514,504	15,94
514,851	15,92
515,199	15,9
515,546	15,9
515,893	15,89
516,241	15,9
516,588	15,92
516,935	15,94
517,282	15,95
517,63	15,95
517,977	15,94
518,324	15,95
518,671	15,93
519,018	15,94
519,365	15,95
519,711	15,96
520,058	15,98
520,405	15,97
520,752	15,96
521,099	15,95
521,445	15,96
521,792	15,98
522,138	15,99
522,485	16
522,832	16,01
523,178	16,03
523,524	16,04
523,871	16,04
524,217	16,03
524,563	16,02
524,91	16,02
525,256	16
525,602	15,99
525,948	15,99
526,294	15,99
526,64	15,99
526,986	15,99
527,332	15,97
527,678	15,98
528,024	16,01
528,37	16,03
528,716	16,02
529,061	16,03
529,407	16,02
529,753	16,02
530,098	16,03
530,444	16,03
530,789	16,02
531,135	16,03
531,48	16,04
531,826	16,05
532,171	16,06
532,516	16,09
532,862	16,11
533,207	16,12
533,552	16,14
533,897	16,15
534,242	16,15
534,587	16,17
534,932	16,17
535,277	16,16
535,622	16,17
535,967	16,18
536,312	16,19
536,657	16,23
537,001	16,25
537,346	16,27
537,691	16,27
538,035	16,27
538,38	16,27
538,724	16,24
539,069	16,24
539,413	16,23
539,758	16,24
540,102	16,24
540,446	16,25
540,791	16,25
541,135	16,24
541,479	16,24
541,823	16,24
542,167	16,23
542,512	16,24
542,856	16,22
543,2	16,21
543,543	16,21
543,887	16,2
544,231	16,2
544,575	16,19
544,919	16,21
545,262	16,23
545,606	16,25
545,95	16,28
546,293	16,3
546,637	16,32
546,98	16,33
547,324	16,34
547,667	16,36
548,011	16,36
548,354	16,37
548,697	16,4
549,04	16,41
549,384	16,42
549,727	16,4
550,07	16,43
550,413	16,44
550,756	16,45
551,099	16,45
551,442	16,46
551,785	16,48
552,128	16,48
552,47	16,46
552,813	16,45
553,156	16,44
553,499	16,41
553,841	16,39
554,184	16,37
554,526	16,35
554,869	16,34
555,211	16,34
555,554	16,33
555,896	16,29
556,238	16,27
556,581	16,25
556,923	16,24
557,265	16,23
557,607	16,21
557,949	16,19
558,291	16,2
558,633	16,21
558,975	16,19
559,317	16,18
559,659	16,17
560,001	16,16
560,343	16,14
560,685	16,14
561,026	16,14
561,368	16,13
561,71	16,14
562,051	16,09
562,393	16,08
562,734	16,05
563,076	16,06
563,417	16,06
563,759	16,08
564,1	16,06
564,441	16,06
564,782	16,05
565,124	16,03
565,465	16,03
565,806	16,02
566,147	16,01
566,488	16
566,829	15,98
567,17	15,97
567,511	15,95
567,851	15,95
568,192	15,95
568,533	15,92
568,874	15,9
569,214	15,91
569,555	15,9
569,895	15,9
570,236	15,89
570,576	15,89
570,917	15,9
571,257	15,91
571,598	15,9
571,938	15,91
572,278	15,92
572,618	15,89
572,959	15,9
573,299	15,88
573,639	15,87
573,979	15,88
574,319	15,87
574,659	15,87
574,999	15,87
575,339	15,85
575,678	15,87
576,018	15,86
576,358	15,86
576,698	15,84
577,037	15,82
577,377	15,82
577,716	15,77
578,056	15,73
578,395	15,7
578,735	15,67
579,074	15,64
579,413	15,62
579,753	15,6
580,092	15,53
580,431	15,54
580,77	15,53
581,109	15,52
581,448	15,52
581,787	15,5
582,126	15,47
582,465	15,49
582,804	15,47
583,143	15,48
583,482	15,45
583,82	15,47
584,159	15,45
584,498	15,44
584,836	15,48
585,175	15,47
585,514	15,46
585,852	15,46
586,19	15,45
586,529	15,46
586,867	15,48
587,205	15,5
587,544	15,53
587,882	15,55
588,22	15,58
588,558	15,57
588,896	15,61
589,234	15,64
589,572	15,61
589,91	15,61
590,248	15,59
590,586	15,6
590,924	15,59
591,262	15,64
591,599	15,63
591,937	15,62
592,275	15,65
592,612	15,67
592,95	15,68
593,287	15,74
593,625	15,76
593,962	15,77
594,299	15,78
594,637	15,78
594,974	15,8
595,311	15,78
595,648	15,81
595,985	15,81
596,322	15,82
596,659	15,84
596,996	15,85
597,333	15,83
597,67	15,86
598,007	15,86
598,344	15,85
598,681	15,88
599,017	15,89
599,354	15,9
599,691	15,92
600,027	15,96
600,364	15,93
600,7	15,95
601,037	15,97
601,373	16
601,71	16
602,046	16
602,382	16
602,718	15,99
603,054	15,98
603,391	16
603,727	16,02
604,063	16,01
604,399	16,04
604,735	16,04
605,071	16,04
605,406	16,06
605,742	16,06
606,078	16,05
606,414	16,05
606,749	16,04
607,085	16,05
607,421	16,07
607,756	16,07
608,092	16,08
608,427	16,06
608,762	16,06
609,098	16,04
609,433	16,06
609,768	16,07
610,104	16,05
610,439	16,03
610,774	16,01
611,109	16,01
611,444	16,02
611,779	15,98
612,114	16,01
612,449	15,99
612,784	15,95
613,118	15,94
613,453	15,94
613,788	15,92
614,123	15,86
614,457	15,82
614,792	15,79
615,126	15,74
615,461	15,71
615,795	15,69
616,13	15,67
616,464	15,63
616,798	15,63
617,132	15,66
617,467	15,64
617,801	15,67
618,135	15,69
618,469	15,71
618,803	15,75
619,137	15,73
619,471	15,75
619,805	15,76
620,139	15,81
620,472	15,82
620,806	15,85
621,14	15,85
621,473	15,86
621,807	15,83
622,141	15,82
622,474	15,84
622,808	15,89
623,141	15,88
623,474	15,9
623,808	15,91
624,141	15,92
624,474	15,96
624,807	15,93
625,141	15,94
625,474	15,91
625,807	15,91
626,14	15,92
626,473	15,9
626,806	15,91
627,138	15,9
627,471	15,87
627,804	15,86
628,137	15,88
628,469	15,88
628,802	15,88
629,135	15,9
629,467	15,88
629,8	15,83
630,132	15,87
630,465	15,88
630,797	15,89
631,129	15,84
631,461	15,84
631,794	15,88
632,126	15,85
632,458	15,91
632,79	15,92
633,122	15,93
633,454	15,94
633,786	15,94
634,118	15,94
634,45	15,96
634,781	15,97
635,113	15,94
635,445	15,97
635,777	16
636,108	16
636,44	15,99
636,771	16,05
637,103	16,05
637,434	16,06
637,765	16,04
638,097	16,05
638,428	16,04
638,759	15,98
639,09	16
639,422	15,95
639,753	15,96
640,084	15,89
640,415	15,9
640,746	15,88
641,077	15,9
641,407	15,95
641,738	15,93
642,069	15,98
642,4	15,96
642,73	15,96
643,061	15,95
643,392	15,99
643,722	15,97
644,053	15,94
644,383	15,89
644,713	15,87
645,044	15,89
645,374	15,92
645,704	15,97
646,034	15,98
646,365	15,95
646,695	15,96
647,025	15,99
647,355	16
647,685	16,03
648,015	15,98
648,344	15,94
648,674	15,92
649,004	15,9
649,334	15,88
649,663	15,88
649,993	15,91
650,323	15,93
650,652	15,91
650,982	15,97
651,311	15,98
651,64	16
651,97	16,03
652,299	16,02
652,628	16,04
652,958	16,07
653,287	16,18
653,616	16,17
653,945	16,15
654,274	16,14
654,603	16,13
654,932	16,15
655,261	16,17
655,589	16,22
655,918	16,24
656,247	16,26
656,576	16,28
656,904	16,32
657,233	16,32
657,561	16,36
657,89	16,36
658,218	16,38
658,547	16,39
658,875	16,39
659,203	16,38
659,532	16,33
659,86	16,31
660,188	16,26
660,516	16,27
660,844	16,3
661,172	16,34
661,5	16,35
661,828	16,36
662,156	16,38
662,484	16,39
662,811	16,42
663,139	16,46
663,467	16,42
663,794	16,4
664,122	16,41
664,45	16,35
664,777	16,33
665,104	16,33
665,432	16,33
665,759	16,3
666,086	16,29
666,414	16,3
666,741	16,35
667,068	16,4
667,395	16,41
667,722	16,44
668,049	16,42
668,376	16,41
668,703	16,43
669,03	16,45
669,357	16,43
669,683	16,39
670,01	16,34
670,337	16,34
670,663	16,32
670,99	16,29
671,317	16,31
671,643	16,34
671,969	16,34
672,296	16,34
672,622	16,31
672,948	16,37
673,275	16,39
673,601	16,33
673,927	16,27
674,253	16,28
674,579	16,28
674,905	16,29
675,231	16,29
675,557	16,25
675,883	16,23
676,209	16,26
676,534	16,3
676,86	16,33
677,186	16,39
677,511	16,45
677,837	16,5
678,162	16,53
678,488	16,56
678,813	16,58
679,139	16,6
679,464	16,64
679,789	16,65
680,114	16,64
680,44	16,67
680,765	16,68
681,09	16,65
681,415	16,6
681,74	16,59
682,065	16,63
682,39	16,67
682,714	16,66
683,039	16,66
683,364	16,62
683,689	16,65
684,013	16,6
684,338	16,56
684,662	16,55
684,987	16,59
685,311	16,58
685,636	16,58
685,96	16,56
686,284	16,54
686,608	16,43
686,933	16,46
687,257	16,43
687,581	16,45
687,905	16,48
688,229	16,5
688,553	16,48
688,877	16,48
689,201	16,5
689,524	16,53
689,848	16,54
690,172	16,6
690,496	16,58
690,819	16,59
691,143	16,55
691,466	16,49
691,79	16,43
692,113	16,39
692,436	16,38
692,76	16,42
693,083	16,44
693,406	16,5
693,729	16,46
694,053	16,49
694,376	16,47
694,699	16,39
695,022	16,45
695,344	16,53
695,667	16,56
695,99	16,64
696,313	16,72
696,636	16,78
696,958	16,85
697,281	16,9
697,604	16,91
697,926	16,98
698,249	17,08
698,571	17,14
698,893	17,11
699,216	17,09
699,538	17,05
699,86	17,11
700,182	17,15
700,504	17,2
700,827	17,18
701,149	17,19
701,471	17,23
701,793	17,2
702,114	17,19
702,436	17,17
702,758	17,05
703,08	16,94
703,401	16,86
703,723	16,78
704,045	16,74
704,366	16,79
704,688	16,79
705,009	16,71
705,331	16,68
705,652	16,79
705,973	16,86
706,294	16,89
706,616	16,84
706,937	16,84
707,258	16,72
707,579	16,7
707,9	16,7
708,221	16,71
708,542	16,73
708,863	16,74
709,183	16,78
709,504	16,83
709,825	16,87
710,145	16,89
710,466	16,92
710,787	16,96
711,107	17,01
711,427	17,01
711,748	17
712,068	16,99
712,388	16,98
712,709	16,98
713,029	17
713,349	17,02
713,669	16,96
713,989	17,05
714,309	17,15
714,629	17,22
714,949	17,27
715,269	17,34
715,589	17,37
715,908	17,37
716,228	17,37
716,548	17,42
716,867	17,44
717,187	17,41
717,506	17,41
717,826	17,33
718,145	17,35
718,465	17,44
718,784	17,5
719,103	17,5
719,422	17,5
719,741	17,56
720,061	17,58
720,38	17,72
720,699	17,84
721,018	18,01
721,336	18,08
721,655	18,11
721,974	18,18
722,293	18,24
722,612	18,37
722,93	18,47
723,249	18,49
723,567	18,56
723,886	18,64
724,204	18,73
724,523	18,88
724,841	18,97
725,159	19,03
725,477	19,13
725,796	19,21
726,114	19,38
726,432	19,48
726,75	19,66
727,068	19,76
727,386	19,87
727,704	19,94
728,022	20,05
728,339	20,26
728,657	20,31
728,975	20,4
729,292	20,46
729,61	20,55
729,928	20,74
730,245	20,86
730,562	20,99
730,88	21,08
731,197	21,19
731,514	21,26
731,832	21,37
732,149	21,42
732,466	21,51
732,783	21,54
733,1	21,64
733,417	21,75
733,734	21,91
734,051	21,97
734,368	21,97
734,684	21,98
735,001	22,01
735,318	22,11
735,634	22,19
735,951	22,28
736,268	22,28
736,584	22,23
736,9	22,24
737,217	22,28
737,533	22,31
737,849	22,4
738,166	22,54
738,482	22,63
738,798	22,77
739,114	22,9
739,43	23
739,746	23,04
740,062	23,05
740,378	22,98
740,693	23,04
741,009	23,18
741,325	23,32
741,641	23,32
741,956	23,35
742,272	23,4
742,587	23,39
742,903	23,58
743,218	23,66
743,533	23,78
743,849	23,89
744,164	23,94
744,479	23,93
744,794	24,07
745,109	24,15
745,424	24,23
745,739	24,23
746,054	24,26
746,369	24,22
746,684	24,34
746,999	24,42
747,313	24,5
747,628	24,45
747,943	24,4
748,257	24,39
748,572	24,47
748,886	24,57
749,201	24,7
749,515	24,66
749,829	24,74
750,144	24,84
750,458	24,94
750,772	25,05
751,086	25,13
751,4	25,11
751,714	25,13
752,028	25,12
752,342	25,19
752,656	25,16
752,97	25,31
753,284	25,38
753,597	25,55
753,911	25,59
754,225	25,68
754,538	25,83
754,852	26
755,165	26,11
755,478	26,15
755,792	26,24
756,105	26,42
756,418	26,62
756,731	26,59
757,045	26,53
757,358	26,57
757,671	26,56
757,984	26,53
758,297	26,44
758,609	26,55
758,922	26,58
759,235	26,78
759,548	26,77
759,86	26,56
760,173	26,29
760,486	26,02
760,798	25,8
761,111	25,66
761,423	25,46
761,735	25,35
762,048	25,29
762,36	25,27
762,672	25,32
762,984	25,28
763,296	25,45
763,608	25,57
763,92	25,58
764,232	25,62
764,544	25,64
764,856	25,74
765,168	25,74
765,48	25,85
765,791	25,89
766,103	26,06
766,414	26,27
766,726	26,53
767,037	26,86
767,349	27,32
767,66	27,61
767,972	28,02
768,283	28,51
768,594	28,86
768,905	29,13
769,216	29,37
769,527	29,65
769,838	29,68
770,149	29,72
770,46	29,87
770,771	30,11
771,082	30,41
771,393	30,71
771,703	30,94
772,014	31,11
772,324	31,18
772,635	31,11
772,945	31,23
773,256	31,51
773,566	31,89
773,877	31,89
774,187	32,06
774,497	32,18
774,807	32,12
775,117	32,19
775,427	32,18
775,737	32,27
776,047	32,14
776,357	32,18
776,667	32,33
776,977	32,6
777,287	32,87
777,596	32,94
777,906	32,9
778,216	32,96
778,525	33,02
778,835	33,22
779,144	33,13
779,453	33,06
779,763	33
780,072	32,93
780,381	33,13
780,69	33,2
781	33,24
781,309	33,25
781,618	33,31
781,927	33,45
782,235	33,5
782,544	33,87
782,853	34,1
783,162	34,35
783,471	34,43
783,779	34,46
784,088	34,5
784,396	34,72
784,705	34,73
785,013	34,78
785,322	34,66
785,63	34,97
785,938	35,04
786,246	34,81
786,554	34,57
786,863	34,41
787,171	34,42
787,479	34,6
787,787	34,79
788,094	34,98
788,402	34,87
788,71	34,91
789,018	34,76
789,326	34,82
789,633	34,81
789,941	35,01
790,248	35,02
790,556	35,17
790,863	35,14
791,171	35,31
791,478	35,3
791,785	35,31
792,092	35,24
792,399	35,38
792,707	35,91
793,014	36,32
793,321	36,54
793,628	36,63
793,934	36,54
794,241	36,4
794,548	36,34
794,855	36,51
795,161	36,53
795,468	36,45
795,775	36,22
796,081	35,97
796,388	35,82
796,694	35,89
797	35,83
797,307	35,83
797,613	35,76
797,919	35,66
798,225	35,81
798,531	36,04
798,837	36,03
799,143	35,77
799,449	35,56
799,755	35,46
800,061	35,59
800,367	35,72
800,672	36,02
800,978	36,31
801,284	36,5
801,589	36,41
801,895	36,56
802,2	36,93
802,506	37,24
802,811	37,28
803,116	37,06
803,421	36,92
803,727	36,9
804,032	36,75
804,337	36,89
804,642	37,01
804,947	36,93
805,252	36,93
805,556	37,13
805,861	37,42
806,166	37,49
806,471	37,44
806,775	37,41
807,08	37,2
807,384	37,04
807,689	37,05
807,993	37,35
808,298	37,63
808,602	37,75
808,906	37,83
809,211	37,84
809,515	38,07
809,819	38,39
810,123	38,68
810,427	39,19
810,731	39,31
811,035	39,41
811,338	39,6
811,642	39,89
811,946	39,89
812,25	39,85
812,553	39,97
812,857	40,19
813,16	40,26
813,464	40,34
813,767	40,58
814,07	40,51
814,374	40,31
814,677	40,05
814,98	39,92
815,283	39,84
815,586	39,89
815,889	39,66
816,192	39,5
816,495	39,23
816,798	38,84
817,101	38,73
817,404	38,19
817,706	37,69
818,009	37,11
818,312	36,36
818,614	35,43
818,917	34,01
819,219	32,08
819,521	30,39
819,824	28,94
820,126	27,79
820,428	27,05
820,73	26,64
821,032	26,22
821,334	25,92
821,636	25,71
821,938	25,59
822,24	25,48
822,542	25,41
822,844	25,39
823,145	25,34
823,447	25,28
823,749	25,25
824,05	25,18
824,352	25,15
824,653	25,15
824,955	25,14
825,256	25,22
825,557	25,43
825,858	25,72
826,16	26,13
826,461	26,55
826,762	26,96
827,063	27,31
827,364	27,88
827,665	28,42
827,965	28,98
828,266	29,28
828,567	29,68
828,868	29,95
829,168	30,1
829,469	30,32
829,769	30,61
830,07	31
830,37	31,54
830,67	32,02
830,971	32,3
831,271	32,63
831,571	32,97
831,871	33,37
832,171	33,53
832,471	33,5
832,771	33,49
833,071	33,61
833,371	33,84
833,671	33,78
833,971	33,63
834,27	33,42
834,57	33,59
834,869	33,94
835,169	34,18
835,468	34,41
835,768	34,64
836,067	34,74
836,367	35,12
836,666	35,37
836,965	35,69
837,264	36,44
837,563	37,13
837,862	37,89
838,161	38,24
838,46	38,8
838,759	39,57
839,058	40,21
839,356	40,73
839,655	40,89
839,954	41,37
840,252	41,85
840,551	42,62
840,849	43,47
841,148	43,76
841,446	43,95
841,744	44,23
842,043	44,18
842,341	44,49
842,639	44,47
842,937	44,71
843,235	45,18
843,533	45,79
843,831	46,57
844,129	47,63
844,427	48,79
844,724	50,39
845,022	52
845,32	53,77
845,617	55,01
845,915	56,67
846,212	57,34
846,51	58,17
846,807	58,44
847,104	58,57
847,402	58,79
847,699	59,4
847,996	59,16
848,293	59,69
848,59	59,97
848,887	60,08
849,184	60,23
849,481	60,05
849,778	59,83
850,074	59,99
850,371	59,57
850,668	59,28
850,964	58,27
851,261	56,99
851,557	56,77
851,854	57,38
852,15	56,88
852,446	57,47
852,743	58,12
853,039	58,61
853,335	58,91
853,631	59,44
853,927	59,89
854,223	60,86
854,519	61,52
854,815	61,86
855,111	61,93
855,406	62
855,702	62,35
855,998	62,82
856,293	63,1
856,589	63,28
856,884	63,18
857,18	63,39
857,475	64,19
857,77	63,73
858,066	63,46
858,361	64,11
858,656	64,23
858,951	64,01
859,246	64,15
859,541	64,2
859,836	63,51
860,131	62,57
860,426	61,82
860,72	61,38
861,015	61,46
861,31	61,95
861,604	62,58
861,899	62,44
862,193	62,37
862,487	62,6
862,782	62,81
863,076	63,33
863,37	64,21
863,664	65,48
863,959	66,33
864,253	66,38
864,547	66
864,841	65,73
865,135	65,8
865,428	65,49
865,722	65,21
866,016	65,55
866,31	65,71
866,603	65,67
866,897	65,64
867,19	65,32
867,484	65,38
867,777	64,98
868,07	65,23
868,364	64,7
868,657	63,6
868,95	63,29
869,243	63,4
869,536	63,09
869,829	62,39
870,122	61,97
870,415	61,53
870,708	61,59
871	61,83
871,293	61,59
871,586	62,02
871,878	62,39
872,171	62,58
872,463	63,3
872,756	63,93
873,048	64,04
873,341	64,07
873,633	63,21
873,925	63,07
874,217	62,87
874,509	63,37
874,801	64,53
875,093	65,18
875,385	65,4
875,677	65,24
875,969	64,76
