Data from zc74010_2_Reflection_00005.txt Node
Date: Thu Mar 12 15:00:08 ART 2020
User: Ana
Spectrometer: USB2E3644
Trigger mode: 4
Integration Time (sec): 5,000000E-2
Scans to average: 10
Electric dark correction enabled: true
Nonlinearity correction enabled: false
Boxcar width: 10
XAxis mode: Wavelengths
Number of Pixels in Spectrum: 2048
>>>>>Begin Spectral Data<<<<<
178,315	80,91
178,696	90,7
179,076	96,41
179,457	80,25
179,838	82,86
180,218	91,11
180,599	-166,67
180,979	80,65
181,36	108,33
181,74	109,26
182,121	105
182,501	105,26
182,881	103,74
183,262	100
183,642	97,7
184,022	96,62
184,402	97,46
184,783	98,2
185,163	95,41
185,543	94,09
185,923	95,13
186,303	97,43
186,683	99,77
187,063	102,71
187,443	103,17
187,823	103,65
188,203	103,59
188,583	103,72
188,963	103,72
189,343	103,13
189,723	103,4
190,102	106,46
190,482	110,73
190,862	112,93
191,242	114,58
191,621	114,75
192,001	113,76
192,38	112,59
192,76	110,82
193,14	111,4
193,519	112,1
193,898	112,44
194,278	113,47
194,657	115,68
195,037	115,46
195,416	113,12
195,795	113,01
196,175	113,17
196,554	112,47
196,933	112,26
197,312	112,65
197,692	112,3
198,071	110,84
198,45	109,31
198,829	108,92
199,208	109,34
199,587	109,77
199,966	110,3
200,345	110,18
200,724	110,71
201,103	110,68
201,482	111,9
201,86	113,4
202,239	112,2
202,618	111,32
202,997	111,93
203,375	114,13
203,754	115,91
204,133	117,68
204,511	119,11
204,89	120,08
205,269	120,32
205,647	120,02
206,026	119,49
206,404	118,91
206,782	117,65
207,161	116,78
207,539	115,38
207,918	115,02
208,296	116,22
208,674	117,06
209,052	118,55
209,431	119,22
209,809	118,88
210,187	119,05
210,565	118,74
210,943	118,37
211,321	117,98
211,699	117,94
212,077	117,86
212,455	116,88
212,833	116,17
213,211	115,91
213,589	116,54
213,967	116,46
214,345	117,2
214,722	118,96
215,1	120,46
215,478	121,62
215,855	122,4
216,233	122,75
216,611	123,67
216,988	122,82
217,366	121,44
217,743	121,66
218,121	123,01
218,498	124,18
218,876	124,09
219,253	122,63
219,631	121,41
220,008	120
220,385	120,47
220,762	121,24
221,14	121,46
221,517	120,75
221,894	122,3
222,271	122,28
222,648	121,51
223,025	120,32
223,402	120
223,78	119,42
224,157	118,52
224,533	117,32
224,91	118,05
225,287	120,3
225,664	122,08
226,041	121,84
226,418	121,58
226,795	122,16
227,171	122,68
227,548	123,99
227,925	125,31
228,301	126,21
228,678	126,79
229,055	127,69
229,431	128,94
229,808	129,16
230,184	129,71
230,561	131,67
230,937	134,16
231,313	135,92
231,69	137,58
232,066	140,15
232,442	142,43
232,819	142,87
233,195	141,88
233,571	141,53
233,947	144,5
234,323	147,36
234,699	149,25
235,075	151,44
235,451	153,11
235,827	155,12
236,203	156
236,579	157,91
236,955	162,77
237,331	171,63
237,707	182,62
238,083	196,81
238,459	212,89
238,834	239,31
239,21	282,88
239,586	340,72
239,961	405,59
240,337	475,38
240,713	541,48
241,088	619,4
241,464	714,29
241,839	840
242,215	1114,91
242,59	2616,33
242,965	-1611,25
243,341	-459,72
243,716	-249,52
244,091	-179,95
244,467	-149,04
244,842	-131,04
245,217	-119,14
245,592	-113,26
245,967	-112,02
246,343	-108,55
246,718	-105,95
247,093	-107,91
247,468	-111,04
247,843	-110,76
248,218	-106,44
248,593	-98,07
248,967	-89,23
249,342	-84,82
249,717	-82,5
250,092	-80,84
250,467	-81,13
250,841	-85,61
251,216	-97,19
251,591	-117,16
251,965	-140,71
252,34	-159,35
252,714	-177,78
253,089	-190,22
253,463	-199,67
253,838	-197,69
254,212	-193,57
254,587	-184,67
254,961	-162,72
255,335	-136,62
255,71	-111,59
256,084	-85,64
256,458	-67,96
256,832	-57,56
257,206	-51,47
257,581	-48,18
257,955	-46,32
258,329	-44,44
258,703	-42,32
259,077	-40,37
259,451	-38,4
259,825	-37,25
260,199	-36,97
260,572	-36,5
260,946	-36,81
261,32	-36,51
261,694	-36,07
262,068	-35,85
262,441	-35,35
262,815	-35,34
263,189	-35,27
263,562	-35,84
263,936	-38,79
264,309	-42,91
264,683	-47,53
265,056	-49,93
265,43	-50,7
265,803	-50,75
266,176	-50,26
266,55	-49,74
266,923	-49,05
267,296	-48,26
267,67	-46,29
268,043	-44,44
268,416	-41,92
268,789	-38,99
269,162	-36,49
269,535	-34,3
269,908	-32,7
270,281	-32,03
270,654	-32,15
271,027	-32,84
271,4	-33,37
271,773	-33,09
272,146	-32,97
272,519	-32,73
272,891	-32,47
273,264	-32,55
273,637	-32,62
274,01	-32,62
274,382	-33,29
274,755	-33,56
275,127	-33,73
275,5	-34,17
275,872	-34,4
276,245	-34,93
276,617	-35,95
276,99	-36,56
277,362	-37,59
277,734	-38,28
278,107	-38,16
278,479	-37,72
278,851	-36,96
279,223	-36,29
279,596	-35,64
279,968	-35,29
280,34	-34,77
280,712	-34,29
281,084	-33,16
281,456	-31,71
281,828	-30,38
282,2	-28,44
282,572	-26,97
282,944	-25,88
283,315	-25,08
283,687	-24,41
284,059	-24
284,431	-23,57
284,802	-23,14
285,174	-22,61
285,546	-22,05
285,917	-21,32
286,289	-20,51
286,66	-20,08
287,032	-19,63
287,403	-19,51
287,775	-19,44
288,146	-19,53
288,518	-19,69
288,889	-19,69
289,26	-19,73
289,632	-20,13
290,003	-20,77
290,374	-21,22
290,745	-21,41
291,116	-21,36
291,487	-21,27
291,858	-21,09
292,229	-20,76
292,6	-20,23
292,971	-19,38
293,342	-18,51
293,713	-17,82
294,084	-17,35
294,455	-16,71
294,826	-16,41
295,196	-16,35
295,567	-16,5
295,938	-16,27
296,308	-16,06
296,679	-15,87
297,05	-15,69
297,42	-15,28
297,791	-14,79
298,161	-14,57
298,532	-14,28
298,902	-14,05
299,272	-13,87
299,643	-13,81
300,013	-13,57
300,383	-13,48
300,754	-13,69
301,124	-14,17
301,494	-14,67
301,864	-15,1
302,234	-15,61
302,604	-15,72
302,974	-15,58
303,344	-15,22
303,714	-14,94
304,084	-14,55
304,454	-14,31
304,824	-14,09
305,194	-14,02
305,563	-13,9
305,933	-13,62
306,303	-13,38
306,673	-13,02
307,042	-12,52
307,412	-11,75
307,781	-11,1
308,151	-10,75
308,521	-10,47
308,89	-10,04
309,259	-9,87
309,629	-9,84
309,998	-9,77
310,368	-9,77
310,737	-9,71
311,106	-9,57
311,475	-9,39
311,845	-9,35
312,214	-9,24
312,583	-9,17
312,952	-9,19
313,321	-9,18
313,69	-8,87
314,059	-8,7
314,428	-8,75
314,797	-8,87
315,166	-9,26
315,535	-9,86
315,904	-10,28
316,272	-10,52
316,641	-10,8
317,01	-10,77
317,379	-10,57
317,747	-10,13
318,116	-9,7
318,484	-9,5
318,853	-9,31
319,221	-9,24
319,59	-9,23
319,958	-9,1
320,327	-8,9
320,695	-8,69
321,063	-8,47
321,432	-8,42
321,8	-8,22
322,168	-8,1
322,536	-8,1
322,905	-7,7
323,273	-7,19
323,641	-6,85
324,009	-6,58
324,377	-6,31
324,745	-6,04
325,113	-5,74
325,481	-5,54
325,849	-5,43
326,216	-5,22
326,584	-5,04
326,952	-4,94
327,32	-4,75
327,687	-4,62
328,055	-4,46
328,423	-4,33
328,79	-4,34
329,158	-4,4
329,525	-4,5
329,893	-4,42
330,26	-4,28
330,628	-4,35
330,995	-4,4
331,362	-4,39
331,73	-4,34
332,097	-4,22
332,464	-4,12
332,831	-4,01
333,199	-3,94
333,566	-3,87
333,933	-3,71
334,3	-3,53
334,667	-3,35
335,034	-3,19
335,401	-3,13
335,768	-3,12
336,135	-3,02
336,502	-2,83
336,868	-2,67
337,235	-2,54
337,602	-2,42
337,969	-2,23
338,335	-2,03
338,702	-1,81
339,069	-1,65
339,435	-1,61
339,802	-1,52
340,168	-1,46
340,535	-1,36
340,901	-1,38
341,267	-1,35
341,634	-1,33
342	-1,32
342,366	-1,22
342,733	-1,2
343,099	-1,11
343,465	-1,05
343,831	-1,02
344,197	-1
344,563	-1,01
344,929	-0,93
345,295	-0,78
345,661	-0,69
346,027	-0,66
346,393	-0,68
346,759	-0,62
347,125	-0,54
347,491	-0,53
347,856	-0,53
348,222	-0,59
348,588	-0,47
348,953	-0,34
349,319	-0,33
349,684	-0,3
350,05	-0,31
350,415	-0,2
350,781	-0,1
351,146	0,05
351,512	0,21
351,877	0,32
352,242	0,44
352,608	0,5
352,973	0,52
353,338	0,55
353,703	0,65
354,068	0,69
354,433	0,75
354,798	0,84
355,164	0,89
355,528	0,95
355,893	1,01
356,258	1,02
356,623	1,1
356,988	1,27
357,353	1,36
357,718	1,44
358,082	1,47
358,447	1,52
358,812	1,58
359,176	1,61
359,541	1,7
359,905	1,77
360,27	1,82
360,634	1,83
360,999	1,89
361,363	1,92
361,728	2,01
362,092	2,08
362,456	2,12
362,821	2,22
363,185	2,3
363,549	2,38
363,913	2,44
364,277	2,47
364,641	2,43
365,005	2,49
365,369	2,5
365,733	2,54
366,097	2,59
366,461	2,63
366,825	2,71
367,189	2,73
367,553	2,78
367,916	2,89
368,28	3,03
368,644	3,09
369,007	3,16
369,371	3,22
369,734	3,27
370,098	3,34
370,461	3,41
370,825	3,49
371,188	3,56
371,552	3,61
371,915	3,67
372,278	3,81
372,642	3,92
373,005	4,08
373,368	4,24
373,731	4,35
374,094	4,46
374,457	4,53
374,82	4,62
375,183	4,7
375,546	4,77
375,909	4,82
376,272	4,93
376,635	5,04
376,998	5,14
377,361	5,2
377,723	5,29
378,086	5,36
378,449	5,41
378,811	5,47
379,174	5,56
379,537	5,63
379,899	5,65
380,262	5,65
380,624	5,66
380,987	5,68
381,349	5,72
381,711	5,75
382,074	5,81
382,436	5,89
382,798	5,97
383,16	6,01
383,522	6,08
383,884	6,13
384,247	6,19
384,609	6,25
384,971	6,29
385,333	6,31
385,695	6,32
386,056	6,38
386,418	6,39
386,78	6,39
387,142	6,41
387,504	6,45
387,865	6,52
388,227	6,55
388,589	6,59
388,95	6,62
389,312	6,65
389,673	6,67
390,035	6,67
390,396	6,67
390,758	6,71
391,119	6,7
391,48	6,69
391,842	6,7
392,203	6,69
392,564	6,69
392,925	6,71
393,286	6,73
393,648	6,73
394,009	6,77
394,37	6,8
394,731	6,84
395,092	6,85
395,452	6,84
395,813	6,85
396,174	6,84
396,535	6,86
396,896	6,87
397,257	6,9
397,617	6,95
397,978	6,98
398,338	6,98
398,699	7,04
399,06	7,09
399,42	7,09
399,781	7,12
400,141	7,15
400,501	7,15
400,862	7,16
401,222	7,17
401,582	7,18
401,943	7,19
402,303	7,2
402,663	7,23
403,023	7,25
403,383	7,29
403,743	7,3
404,103	7,3
404,463	7,33
404,823	7,36
405,183	7,36
405,543	7,37
405,903	7,38
406,262	7,37
406,622	7,35
406,982	7,38
407,342	7,4
407,701	7,42
408,061	7,47
408,42	7,51
408,78	7,54
409,139	7,56
409,499	7,58
409,858	7,58
410,217	7,6
410,577	7,59
410,936	7,57
411,295	7,58
411,655	7,54
412,014	7,5
412,373	7,45
412,732	7,41
413,091	7,39
413,45	7,34
413,809	7,33
414,168	7,28
414,527	7,22
414,886	7,15
415,245	7,1
415,603	7,06
415,962	7,02
416,321	6,99
416,679	6,96
417,038	6,91
417,397	6,88
417,755	6,81
418,114	6,8
418,472	6,78
418,831	6,78
419,189	6,78
419,547	6,77
419,906	6,76
420,264	6,73
420,622	6,7
420,981	6,69
421,339	6,68
421,697	6,69
422,055	6,71
422,413	6,73
422,771	6,75
423,129	6,77
423,487	6,79
423,845	6,82
424,203	6,83
424,56	6,88
424,918	6,92
425,276	6,97
425,634	7,01
425,991	7,04
426,349	7,07
426,707	7,11
427,064	7,15
427,422	7,18
427,779	7,25
428,137	7,32
428,494	7,39
428,851	7,4
429,209	7,41
429,566	7,39
429,923	7,4
430,28	7,37
430,637	7,36
430,995	7,34
431,352	7,3
431,709	7,29
432,066	7,3
432,423	7,29
432,78	7,27
433,137	7,27
433,493	7,25
433,85	7,26
434,207	7,21
434,564	7,19
434,92	7,19
435,277	7,17
435,634	7,16
435,99	7,14
436,347	7,14
436,703	7,15
437,06	7,14
437,416	7,13
437,773	7,12
438,129	7,12
438,485	7,14
438,841	7,14
439,198	7,13
439,554	7,12
439,91	7,13
440,266	7,14
440,622	7,13
440,978	7,11
441,334	7,06
441,69	7,06
442,046	7,05
442,402	7,03
442,758	7,02
443,113	7,01
443,469	7,01
443,825	7,01
444,181	7
444,536	7,02
444,892	7,03
445,247	7,06
445,603	7,06
445,958	7,06
446,314	7,07
446,669	7,08
447,025	7,08
447,38	7,08
447,735	7,09
448,09	7,1
448,446	7,12
448,801	7,14
449,156	7,16
449,511	7,19
449,866	7,23
450,221	7,28
450,576	7,31
450,931	7,35
451,286	7,4
451,641	7,43
451,995	7,45
452,35	7,47
452,705	7,48
453,06	7,49
453,414	7,5
453,769	7,5
454,123	7,51
454,478	7,51
454,832	7,5
455,187	7,46
455,541	7,44
455,896	7,42
456,25	7,39
456,604	7,38
456,958	7,36
457,313	7,34
457,667	7,32
458,021	7,31
458,375	7,31
458,729	7,33
459,083	7,33
459,437	7,34
459,791	7,33
460,145	7,34
460,499	7,33
460,852	7,32
461,206	7,33
461,56	7,33
461,914	7,35
462,267	7,36
462,621	7,38
462,974	7,4
463,328	7,42
463,681	7,44
464,035	7,46
464,388	7,47
464,742	7,49
465,095	7,51
465,448	7,51
465,801	7,5
466,155	7,48
466,508	7,45
466,861	7,44
467,214	7,44
467,567	7,42
467,92	7,43
468,273	7,42
468,626	7,41
468,979	7,39
469,332	7,37
469,684	7,36
470,037	7,35
470,39	7,36
470,743	7,38
471,095	7,39
471,448	7,4
471,8	7,4
472,153	7,41
472,505	7,42
472,858	7,41
473,21	7,43
473,562	7,43
473,915	7,46
474,267	7,46
474,619	7,45
474,971	7,45
475,324	7,43
475,676	7,44
476,028	7,46
476,38	7,48
476,732	7,49
477,084	7,49
477,436	7,49
477,787	7,45
478,139	7,44
478,491	7,45
478,843	7,43
479,195	7,41
479,546	7,35
479,898	7,28
480,249	7,2
480,601	7,13
480,952	7,1
481,304	7,11
481,655	7,12
482,007	7,13
482,358	7,14
482,709	7,14
483,061	7,13
483,412	7,12
483,763	7,1
484,114	7,09
484,465	7,09
484,816	7,09
485,167	7,09
485,518	7,09
485,869	7,09
486,22	7,11
486,571	7,12
486,922	7,13
487,272	7,16
487,623	7,19
487,974	7,22
488,324	7,23
488,675	7,21
489,025	7,2
489,376	7,19
489,726	7,2
490,077	7,2
490,427	7,23
490,778	7,24
491,128	7,27
491,478	7,29
491,828	7,32
492,179	7,34
492,529	7,37
492,879	7,37
493,229	7,36
493,579	7,36
493,929	7,35
494,279	7,37
494,629	7,38
494,979	7,43
495,328	7,48
495,678	7,52
496,028	7,56
496,378	7,6
496,727	7,61
497,077	7,63
497,426	7,65
497,776	7,62
498,125	7,61
498,475	7,6
498,824	7,6
499,174	7,6
499,523	7,6
499,872	7,61
500,221	7,63
500,571	7,65
500,92	7,64
501,269	7,65
501,618	7,67
501,967	7,67
502,316	7,66
502,665	7,65
503,014	7,65
503,363	7,63
503,711	7,62
504,06	7,62
504,409	7,59
504,758	7,58
505,106	7,59
505,455	7,6
505,803	7,61
506,152	7,59
506,5	7,6
506,849	7,6
507,197	7,59
507,546	7,6
507,894	7,62
508,242	7,61
508,59	7,61
508,939	7,58
509,287	7,57
509,635	7,57
509,983	7,58
510,331	7,59
510,679	7,61
511,027	7,62
511,375	7,62
511,723	7,65
512,07	7,67
512,418	7,69
512,766	7,7
513,114	7,71
513,461	7,74
513,809	7,72
514,156	7,7
514,504	7,69
514,851	7,67
515,199	7,64
515,546	7,63
515,893	7,62
516,241	7,64
516,588	7,65
516,935	7,66
517,282	7,65
517,63	7,64
517,977	7,65
518,324	7,66
518,671	7,68
519,018	7,67
519,365	7,65
519,711	7,64
520,058	7,64
520,405	7,64
520,752	7,64
521,099	7,64
521,445	7,65
521,792	7,65
522,138	7,66
522,485	7,68
522,832	7,68
523,178	7,71
523,524	7,7
523,871	7,7
524,217	7,69
524,563	7,67
524,91	7,62
525,256	7,57
525,602	7,54
525,948	7,54
526,294	7,52
526,64	7,53
526,986	7,54
527,332	7,54
527,678	7,54
528,024	7,55
528,37	7,57
528,716	7,58
529,061	7,58
529,407	7,58
529,753	7,57
530,098	7,57
530,444	7,56
530,789	7,56
531,135	7,56
531,48	7,57
531,826	7,59
532,171	7,62
532,516	7,66
532,862	7,67
533,207	7,66
533,552	7,68
533,897	7,69
534,242	7,68
534,587	7,69
534,932	7,71
535,277	7,7
535,622	7,69
535,967	7,71
536,312	7,72
536,657	7,73
537,001	7,74
537,346	7,73
537,691	7,74
538,035	7,7
538,38	7,68
538,724	7,68
539,069	7,68
539,413	7,69
539,758	7,69
540,102	7,73
540,446	7,74
540,791	7,75
541,135	7,76
541,479	7,77
541,823	7,76
542,167	7,74
542,512	7,75
542,856	7,74
543,2	7,73
543,543	7,72
543,887	7,73
544,231	7,74
544,575	7,77
544,919	7,79
545,262	7,84
545,606	7,89
545,95	7,89
546,293	7,9
546,637	7,88
546,98	7,88
547,324	7,87
547,667	7,9
548,011	7,88
548,354	7,87
548,697	7,84
549,04	7,84
549,384	7,82
549,727	7,81
550,07	7,82
550,413	7,81
550,756	7,82
551,099	7,8
551,442	7,79
551,785	7,81
552,128	7,8
552,47	7,78
552,813	7,76
553,156	7,76
553,499	7,74
553,841	7,74
554,184	7,73
554,526	7,7
554,869	7,67
555,211	7,68
555,554	7,67
555,896	7,68
556,238	7,65
556,581	7,62
556,923	7,58
557,265	7,57
557,607	7,55
557,949	7,52
558,291	7,49
558,633	7,48
558,975	7,45
559,317	7,42
559,659	7,4
560,001	7,39
560,343	7,34
560,685	7,34
561,026	7,32
561,368	7,3
561,71	7,28
562,051	7,24
562,393	7,22
562,734	7,19
563,076	7,16
563,417	7,18
563,759	7,19
564,1	7,21
564,441	7,2
564,782	7,18
565,124	7,17
565,465	7,18
565,806	7,15
566,147	7,12
566,488	7,09
566,829	7,08
567,17	7,06
567,511	7,05
567,851	7,01
568,192	6,98
568,533	6,97
568,874	6,98
569,214	7
569,555	6,97
569,895	6,97
570,236	6,94
570,576	6,91
570,917	6,89
571,257	6,87
571,598	6,85
571,938	6,85
572,278	6,84
572,618	6,83
572,959	6,84
573,299	6,86
573,639	6,85
573,979	6,85
574,319	6,84
574,659	6,82
574,999	6,81
575,339	6,82
575,678	6,82
576,018	6,79
576,358	6,75
576,698	6,73
577,037	6,72
577,377	6,73
577,716	6,71
578,056	6,67
578,395	6,64
578,735	6,62
579,074	6,58
579,413	6,55
579,753	6,51
580,092	6,43
580,431	6,37
580,77	6,35
581,109	6,31
581,448	6,29
581,787	6,27
582,126	6,27
582,465	6,23
582,804	6,2
583,143	6,19
583,482	6,18
583,82	6,19
584,159	6,18
584,498	6,17
584,836	6,17
585,175	6,15
585,514	6,15
585,852	6,15
586,19	6,16
586,529	6,14
586,867	6,14
587,205	6,15
587,544	6,16
587,882	6,14
588,22	6,15
588,558	6,16
588,896	6,18
589,234	6,16
589,572	6,17
589,91	6,16
590,248	6,13
590,586	6,09
590,924	6,08
591,262	6,07
591,599	6,05
591,937	6,06
592,275	6,07
592,612	6,08
592,95	6,08
593,287	6,07
593,625	6,1
593,962	6,11
594,299	6,15
594,637	6,2
594,974	6,24
595,311	6,26
595,648	6,26
595,985	6,27
596,322	6,28
596,659	6,3
596,996	6,32
597,333	6,32
597,67	6,33
598,007	6,34
598,344	6,33
598,681	6,34
599,017	6,34
599,354	6,33
599,691	6,3
600,027	6,31
600,364	6,33
600,7	6,34
601,037	6,36
601,373	6,37
601,71	6,37
602,046	6,37
602,382	6,37
602,718	6,4
603,054	6,41
603,391	6,43
603,727	6,43
604,063	6,43
604,399	6,45
604,735	6,47
605,071	6,48
605,406	6,48
605,742	6,47
606,078	6,48
606,414	6,5
606,749	6,54
607,085	6,56
607,421	6,55
607,756	6,56
608,092	6,55
608,427	6,53
608,762	6,51
609,098	6,48
609,433	6,45
609,768	6,42
610,104	6,38
610,439	6,32
610,774	6,29
611,109	6,28
611,444	6,25
611,779	6,21
612,114	6,21
612,449	6,22
612,784	6,21
613,118	6,19
613,453	6,14
613,788	6,09
614,123	6,02
614,457	5,96
614,792	5,89
615,126	5,83
615,461	5,77
615,795	5,73
616,13	5,7
616,464	5,67
616,798	5,63
617,132	5,61
617,467	5,63
617,801	5,64
618,135	5,64
618,469	5,63
618,803	5,65
619,137	5,65
619,471	5,65
619,805	5,64
620,139	5,65
620,472	5,68
620,806	5,7
621,14	5,73
621,473	5,75
621,807	5,74
622,141	5,75
622,474	5,75
622,808	5,75
623,141	5,74
623,474	5,77
623,808	5,81
624,141	5,85
624,474	5,87
624,807	5,88
625,141	5,92
625,474	5,98
625,807	6
626,14	6,01
626,473	6,02
626,806	6,04
627,138	6,05
627,471	6,04
627,804	6,04
628,137	6,04
628,469	6,04
628,802	6,06
629,135	6,05
629,467	6,06
629,8	6,08
630,132	6,06
630,465	6,03
630,797	6,01
631,129	5,98
631,461	5,96
631,794	5,96
632,126	5,93
632,458	5,9
632,79	5,9
633,122	5,91
633,454	5,9
633,786	5,89
634,118	5,86
634,45	5,88
634,781	5,88
635,113	5,9
635,445	5,94
635,777	5,97
636,108	5,98
636,44	5,98
636,771	5,99
637,103	6,02
637,434	6,04
637,765	6,03
638,097	6
638,428	5,96
638,759	5,92
639,09	5,89
639,422	5,86
639,753	5,84
640,084	5,78
640,415	5,74
640,746	5,7
641,077	5,71
641,407	5,69
641,738	5,65
642,069	5,59
642,4	5,56
642,73	5,52
643,061	5,5
643,392	5,46
643,722	5,44
644,053	5,42
644,383	5,4
644,713	5,41
645,044	5,44
645,374	5,49
645,704	5,51
646,034	5,52
646,365	5,49
646,695	5,49
647,025	5,53
647,355	5,56
647,685	5,59
648,015	5,57
648,344	5,55
648,674	5,56
649,004	5,58
649,334	5,58
649,663	5,62
649,993	5,65
650,323	5,69
650,652	5,68
650,982	5,68
651,311	5,67
651,64	5,64
651,97	5,65
652,299	5,65
652,628	5,69
652,958	5,71
653,287	5,76
653,616	5,77
653,945	5,75
654,274	5,75
654,603	5,75
654,932	5,78
655,261	5,81
655,589	5,86
655,918	5,89
656,247	5,91
656,576	5,92
656,904	5,97
657,233	6,01
657,561	6,08
657,89	6,15
658,218	6,21
658,547	6,25
658,875	6,28
659,203	6,3
659,532	6,27
659,86	6,25
660,188	6,23
660,516	6,23
660,844	6,23
661,172	6,24
661,5	6,26
661,828	6,28
662,156	6,29
662,484	6,29
662,811	6,25
663,139	6,25
663,467	6,22
663,794	6,15
664,122	6,11
664,45	6,04
664,777	5,98
665,104	5,97
665,432	5,96
665,759	5,92
666,086	5,9
666,414	5,9
666,741	5,89
667,068	5,9
667,395	5,89
667,722	5,89
668,049	5,9
668,376	5,9
668,703	5,88
669,03	5,9
669,357	5,88
669,683	5,86
670,01	5,83
670,337	5,81
670,663	5,78
670,99	5,76
671,317	5,79
671,643	5,77
671,969	5,72
672,296	5,69
672,622	5,68
672,948	5,66
673,275	5,62
673,601	5,59
673,927	5,57
674,253	5,57
674,579	5,51
674,905	5,45
675,231	5,44
675,557	5,43
675,883	5,39
676,209	5,38
676,534	5,41
676,86	5,47
677,186	5,54
677,511	5,61
677,837	5,67
678,162	5,69
678,488	5,76
678,813	5,83
679,139	5,9
679,464	5,93
679,789	5,93
680,114	5,94
680,44	5,96
680,765	5,98
681,09	6
681,415	6,02
681,74	6,05
682,065	6,05
682,39	6,04
682,714	6,02
683,039	6,04
683,364	6,07
683,689	6,06
684,013	6,01
684,338	5,98
684,662	5,94
684,987	5,92
685,311	5,89
685,636	5,85
685,96	5,77
686,284	5,72
686,608	5,67
686,933	5,61
687,257	5,58
687,581	5,57
687,905	5,57
688,229	5,56
688,553	5,54
688,877	5,5
689,201	5,48
689,524	5,5
689,848	5,5
690,172	5,47
690,496	5,42
690,819	5,38
691,143	5,32
691,466	5,29
691,79	5,22
692,113	5,16
692,436	5,13
692,76	5,16
693,083	5,18
693,406	5,19
693,729	5,19
694,053	5,21
694,376	5,2
694,699	5,17
695,022	5,19
695,344	5,24
695,667	5,33
695,99	5,41
696,313	5,49
696,636	5,56
696,958	5,62
697,281	5,74
697,604	5,84
697,926	5,91
698,249	5,92
698,571	5,91
698,893	5,88
699,216	5,84
699,538	5,78
699,86	5,77
700,182	5,77
700,504	5,78
700,827	5,74
701,149	5,69
701,471	5,68
701,793	5,64
702,114	5,58
702,436	5,47
702,758	5,36
703,08	5,22
703,401	5,07
703,723	4,93
704,045	4,78
704,366	4,65
704,688	4,58
705,009	4,62
705,331	4,68
705,652	4,73
705,973	4,79
706,294	4,79
706,616	4,81
706,937	4,85
707,258	4,83
707,579	4,87
707,9	4,93
708,221	4,98
708,542	5,06
708,863	5,07
709,183	5,1
709,504	5,14
709,825	5,17
710,145	5,2
710,466	5,25
710,787	5,28
711,107	5,34
711,427	5,35
711,748	5,35
712,068	5,39
712,388	5,45
712,709	5,5
713,029	5,59
713,349	5,59
713,669	5,59
713,989	5,66
714,309	5,76
714,629	5,84
714,949	5,88
715,269	5,88
715,589	5,91
715,908	5,93
716,228	5,94
716,548	6,01
716,867	6,04
717,187	6,04
717,506	6,09
717,826	6,1
718,145	6,17
718,465	6,24
718,784	6,19
719,103	6,16
719,422	6,13
719,741	6,14
720,061	6,23
720,38	6,32
720,699	6,42
721,018	6,45
721,336	6,51
721,655	6,63
721,974	6,75
722,293	6,88
722,612	7,08
722,93	7,25
723,249	7,36
723,567	7,49
723,886	7,62
724,204	7,76
724,523	7,9
724,841	8,05
725,159	8,18
725,477	8,41
725,796	8,57
726,114	8,77
726,432	8,95
726,75	9,07
727,068	9,19
727,386	9,31
727,704	9,43
728,022	9,52
728,339	9,59
728,657	9,64
728,975	9,71
729,292	9,77
729,61	9,84
729,928	9,94
730,245	10,04
730,562	10,12
730,88	10,2
731,197	10,31
731,514	10,35
731,832	10,39
732,149	10,43
732,466	10,5
732,783	10,51
733,1	10,54
733,417	10,7
733,734	10,88
734,051	10,98
734,368	11,08
734,684	11,19
735,001	11,3
735,318	11,37
735,634	11,44
735,951	11,54
736,268	11,65
736,584	11,69
736,9	11,76
737,217	11,82
737,533	11,86
737,849	11,99
738,166	12,16
738,482	12,35
738,798	12,45
739,114	12,63
739,43	12,81
739,746	12,89
740,062	12,86
740,378	12,89
740,693	13,01
741,009	13,18
741,325	13,33
741,641	13,33
741,956	13,44
742,272	13,51
742,587	13,55
742,903	13,6
743,218	13,61
743,533	13,69
743,849	13,86
744,164	13,96
744,479	14,01
744,794	14,03
745,109	14,03
745,424	14,11
745,739	14,09
746,054	14,13
746,369	14,16
746,684	14,26
746,999	14,32
747,313	14,29
747,628	14,25
747,943	14,15
748,257	14,25
748,572	14,34
748,886	14,46
749,201	14,63
749,515	14,77
749,829	14,92
750,144	15,07
750,458	15,17
750,772	15,33
751,086	15,42
751,4	15,59
751,714	15,71
752,028	15,83
752,342	15,94
752,656	16,04
752,97	16,18
753,284	16,33
753,597	16,49
753,911	16,73
754,225	16,93
754,538	17,07
754,852	17,13
755,165	17,26
755,478	17,39
755,792	17,41
756,105	17,45
756,418	17,57
756,731	17,63
757,045	17,68
757,358	17,73
757,671	17,73
757,984	17,73
758,297	17,75
758,609	17,86
758,922	17,91
759,235	17,94
759,548	17,96
759,86	17,86
760,173	17,63
760,486	17,35
760,798	17,06
761,111	16,85
761,423	16,65
761,735	16,42
762,048	16,28
762,36	16,3
762,672	16,36
762,984	16,49
763,296	16,58
763,608	16,68
763,92	16,78
764,232	16,83
764,544	16,87
764,856	16,92
765,168	16,95
765,48	17,03
765,791	17,05
766,103	17,12
766,414	17,26
766,726	17,53
767,037	17,85
767,349	18,28
767,66	18,8
767,972	19,42
768,283	20
768,594	20,42
768,905	20,62
769,216	20,82
769,527	20,97
769,838	21,15
770,149	21,23
770,46	21,27
770,771	21,52
771,082	21,75
771,393	22,14
771,703	22,38
772,014	22,65
772,324	22,99
772,635	23,2
772,945	23,37
773,256	23,59
773,566	23,68
773,877	23,67
774,187	23,6
774,497	23,62
774,807	23,79
775,117	23,97
775,427	24,2
775,737	24,35
776,047	24,37
776,357	24,32
776,667	24,36
776,977	24,65
777,287	24,94
777,596	25,14
777,906	25,05
778,216	24,98
778,525	24,98
778,835	25,02
779,144	25,47
779,453	25,88
779,763	26,1
780,072	26,34
780,381	26,69
780,69	26,93
781	27,11
781,309	27,25
781,618	27,5
781,927	27,77
782,235	27,93
782,544	28,24
782,853	28,72
783,162	29,13
783,471	29,24
783,779	29,32
784,088	29,29
784,396	29,35
784,705	29,4
785,013	29,37
785,322	29,31
785,63	29,04
785,938	28,57
786,246	28,33
786,554	28,2
786,863	27,99
787,171	27,97
787,479	27,99
787,787	28,07
788,094	28,18
788,402	28,09
788,71	28,16
789,018	28,19
789,326	28,08
789,633	27,99
789,941	27,99
790,248	27,92
790,556	27,94
790,863	28,09
791,171	28,31
791,478	28,51
791,785	28,72
792,092	28,69
792,399	28,91
792,707	28,88
793,014	28,95
793,321	29,23
793,628	29,53
793,934	29,74
794,241	29,75
794,548	29,55
794,855	29,45
795,161	29,48
795,468	29,24
795,775	29,1
796,081	29,15
796,388	29,12
796,694	29,08
797	28,97
797,307	29
797,613	28,99
797,919	29,05
798,225	29,16
798,531	29,44
798,837	29,68
799,143	29,87
799,449	29,93
799,755	29,91
800,061	29,91
800,367	30,01
800,672	30,15
800,978	30,48
801,284	30,78
801,589	30,9
801,895	31,25
802,2	31,46
802,506	31,49
802,811	31,48
803,116	31,68
803,421	31,87
803,727	31,83
804,032	31,89
804,337	31,95
804,642	32,03
804,947	32,02
805,252	31,92
805,556	32,14
805,861	32,5
806,166	32,63
806,471	32,6
806,775	32,6
807,08	32,55
807,384	32,46
807,689	32,5
807,993	32,56
808,298	32,64
808,602	32,81
808,906	33
809,211	33,23
809,515	33,36
809,819	33,71
810,123	33,99
810,427	34,12
810,731	34,16
811,035	34,05
811,338	34,08
811,642	34,47
811,946	34,7
812,25	34,72
812,553	34,84
812,857	34,8
813,16	34,67
813,464	34,62
813,767	34,69
814,07	34,7
814,374	34,59
814,677	34,61
814,98	34,51
815,283	34,27
815,586	34,01
815,889	33,83
816,192	33,46
816,495	33,06
816,798	32,87
817,101	32,6
817,404	32,19
817,706	31,53
818,009	30,65
818,312	29,52
818,614	28,28
818,917	26,38
819,219	24,22
819,521	22,01
819,824	20,13
820,126	18,67
820,428	17,66
820,73	17,09
821,032	16,61
821,334	16,3
821,636	16,1
821,938	15,95
822,24	15,85
822,542	15,79
822,844	15,78
823,145	15,71
823,447	15,62
823,749	15,56
824,05	15,48
824,352	15,41
824,653	15,46
824,955	15,46
825,256	15,54
825,557	15,74
825,858	16,13
826,16	16,6
826,461	17,15
826,762	17,75
827,063	18,27
827,364	18,86
827,665	19,37
827,965	19,93
828,266	20,5
828,567	20,96
828,868	21,35
829,168	21,64
829,469	21,84
829,769	22,11
830,07	22,52
830,37	23
830,67	23,53
830,971	23,77
831,271	24,15
831,571	24,57
831,871	25,06
832,171	25,29
832,471	25,51
832,771	25,64
833,071	25,63
833,371	25,85
833,671	25,83
833,971	25,87
834,27	25,75
834,57	25,77
834,869	25,83
835,169	25,91
835,468	26,14
835,768	26,55
836,067	26,84
836,367	26,98
836,666	27,3
836,965	27,76
837,264	28,48
837,563	29,41
837,862	30,18
838,161	30,88
838,46	31,82
838,759	32,75
839,058	33,61
839,356	34,69
839,655	35,28
839,954	35,97
840,252	36,8
840,551	37,95
840,849	38,66
841,148	39,25
841,446	39,64
841,744	39,8
842,043	39,73
842,341	39,91
842,639	40,48
842,937	40,9
843,235	41,24
843,533	41,7
843,831	42,19
844,129	43,43
844,427	44,56
844,724	45,27
845,022	46,45
845,32	48,12
845,617	49,38
845,915	50,54
846,212	51,43
846,51	52,2
846,807	52,33
847,104	52,51
847,402	52,79
847,699	53,66
847,996	54,82
848,293	56,18
848,59	57,31
848,887	57,62
849,184	57,86
849,481	58,52
849,778	59,06
850,074	59,64
850,371	59,93
850,668	60,15
850,964	60,55
851,261	60,75
851,557	60,17
851,854	59,61
852,15	59,42
852,446	59,75
852,743	60,41
853,039	61,28
853,335	61,77
853,631	61,79
853,927	61,32
854,223	61,08
854,519	61,06
854,815	61,27
855,111	61,31
855,406	61,45
855,702	61,16
855,998	60,71
856,293	60,01
856,589	59,93
856,884	60,14
857,18	60,41
857,475	60,1
857,77	60,02
858,066	60,18
858,361	60,34
858,656	60,03
858,951	59,25
859,246	58,61
859,541	58,15
859,836	58,38
860,131	58,08
860,426	57,35
860,72	56,83
861,015	56,03
861,31	55,84
861,604	56,17
861,899	56,46
862,193	57,13
862,487	58,34
862,782	58,28
863,076	58,46
863,37	59,19
863,664	60,38
863,959	60,95
864,253	61,09
864,547	61,64
864,841	62,27
865,135	62,8
865,428	63,03
865,722	63,54
866,016	64,06
866,31	64,64
866,603	65,11
866,897	65,32
867,19	65,81
867,484	66,65
867,777	66,84
868,07	67,4
868,364	67,58
868,657	66,36
868,95	65,84
869,243	65,36
869,536	64,14
869,829	63,46
870,122	63,62
870,415	63,79
870,708	63,65
871	63,09
871,293	62,45
871,586	62,03
871,878	61,59
872,171	61,66
872,463	62,37
872,756	62,9
873,048	62,6
873,341	62,33
873,633	61,69
873,925	61,39
874,217	60,53
874,509	59,9
874,801	60,5
875,093	61,58
875,385	61,78
875,677	62,37
875,969	61,92
