Data from zc74010_2_Reflection_00004.txt Node
Date: Thu Mar 12 15:00:00 ART 2020
User: Ana
Spectrometer: USB2E3644
Trigger mode: 4
Integration Time (sec): 5,000000E-2
Scans to average: 10
Electric dark correction enabled: true
Nonlinearity correction enabled: false
Boxcar width: 10
XAxis mode: Wavelengths
Number of Pixels in Spectrum: 2048
>>>>>Begin Spectral Data<<<<<
178,315	71,79
178,696	72,87
179,076	66,75
179,457	63,17
179,838	68,1
180,218	110,37
180,599	527,78
180,979	12,9
181,36	356,94
181,74	175,31
182,121	122,08
182,501	102,52
182,881	97,24
183,262	91,52
183,642	91,12
184,022	88,46
184,402	86,61
184,783	85,88
185,163	85,63
185,543	88,39
185,923	90,96
186,303	95,05
186,683	96,79
187,063	99,51
187,443	104,71
187,823	110,01
188,203	114,31
188,583	115,72
188,963	115,46
189,343	114,62
189,723	116,23
190,102	121,45
190,482	127,55
190,862	130,2
191,242	132,87
191,621	133,06
192,001	134,71
192,38	136,7
192,76	136,91
193,14	137,76
193,519	136,44
193,898	135,88
194,278	136,2
194,657	138,03
195,037	137,68
195,416	133,26
195,795	130,46
196,175	129,52
196,554	129,16
196,933	128,26
197,312	126,81
197,692	125,39
198,071	123,91
198,45	123,37
198,829	123,33
199,208	123,39
199,587	123,58
199,966	122,76
200,345	120,87
200,724	120,26
201,103	119,77
201,482	120,23
201,86	120,09
202,239	118,13
202,618	116,67
202,997	116,09
203,375	117,44
203,754	118,42
204,133	119,7
204,511	120,81
204,89	122,17
205,269	124,13
205,647	125,08
206,026	124,91
206,404	125,16
206,782	124,84
207,161	125,16
207,539	124,84
207,918	125,18
208,296	126,55
208,674	127,66
209,052	128,55
209,431	129,46
209,809	130,39
210,187	131,87
210,565	131,87
210,943	131,87
211,321	131,9
211,699	133,04
212,077	133,6
212,455	133,32
212,833	132,42
213,211	131,49
213,589	132,07
213,967	132,69
214,345	132,51
214,722	133,5
215,1	133,72
215,478	134,13
215,855	134,7
216,233	134,57
216,611	134,78
216,988	134,67
217,366	133,47
217,743	132,93
218,121	133,24
218,498	134,44
218,876	134,48
219,253	133,12
219,631	130,96
220,008	129,08
220,385	128,89
220,762	129,19
221,14	128,07
221,517	125,62
221,894	124,04
222,271	122,92
222,648	121,71
223,025	120,51
223,402	119,67
223,78	119,29
224,157	119,44
224,533	118,55
224,91	119,29
225,287	121,78
225,664	124,33
226,041	125,17
226,418	125,47
226,795	126,18
227,171	126,86
227,548	127,8
227,925	128,49
228,301	128,95
228,678	130,35
229,055	132,77
229,431	135,22
229,808	137,05
230,184	137,93
230,561	139,57
230,937	141,59
231,313	143,16
231,69	144,55
232,066	146,74
232,442	149,11
232,819	149,98
233,195	149,2
233,571	148,91
233,947	151,37
234,323	154,34
234,699	156,32
235,075	158,32
235,451	160,44
235,827	163,41
236,203	165,14
236,579	166,64
236,955	169,87
237,331	177,93
237,707	189,43
238,083	203,33
238,459	219,9
238,834	247,94
239,21	295,4
239,586	357,57
239,961	424,29
240,337	496,86
240,713	562,37
241,088	638,23
241,464	730,76
241,839	855,22
242,215	1135,82
242,59	2673,13
242,965	-1643,54
243,341	-469,2
243,716	-253,9
244,091	-182,39
244,467	-151,06
244,842	-133,52
245,217	-121,77
245,592	-116,02
245,967	-115,82
246,343	-113,6
246,718	-111,89
247,093	-113,96
247,468	-116,51
247,843	-115,96
248,218	-110,71
248,593	-102,38
248,967	-93,74
249,342	-89,46
249,717	-86,82
250,092	-84,58
250,467	-84,79
250,841	-89,83
251,216	-102,07
251,591	-122,61
251,965	-146,08
252,34	-164,95
252,714	-184,92
253,089	-198,24
253,463	-207,08
253,838	-203,77
254,212	-198,04
254,587	-188,29
254,961	-167,05
255,335	-143,53
255,71	-120,04
256,084	-94,79
256,458	-76,23
256,832	-65,43
257,206	-59,36
257,581	-56,31
257,955	-54,54
258,329	-52,46
258,703	-49,83
259,077	-47,57
259,451	-45,7
259,825	-44,83
260,199	-44,51
260,572	-43,56
260,946	-43,3
261,32	-42,73
261,694	-41,96
262,068	-41,4
262,441	-40,84
262,815	-40,48
263,189	-39,66
263,562	-39,63
263,936	-41,73
264,309	-45,32
264,683	-49,39
265,056	-51,53
265,43	-52,43
265,803	-52,62
266,176	-52,31
266,55	-52,44
266,923	-52,09
267,296	-50,97
267,67	-48,78
268,043	-46,89
268,416	-44,53
268,789	-41,8
269,162	-39,22
269,535	-36,99
269,908	-35,22
270,281	-34,11
270,654	-34,03
271,027	-34,73
271,4	-35,53
271,773	-35,89
272,146	-36,27
272,519	-36,42
272,891	-36,54
273,264	-36,67
273,637	-36,78
274,01	-36,87
274,382	-37,54
274,755	-38,09
275,127	-38,71
275,5	-39,26
275,872	-39,31
276,245	-39,55
276,617	-40,5
276,99	-41,53
277,362	-42,91
277,734	-43,78
278,107	-43,65
278,479	-42,9
278,851	-41,87
279,223	-40,84
279,596	-39,82
279,968	-39,11
280,34	-38,04
280,712	-36,72
281,084	-34,78
281,456	-32,53
281,828	-30,57
282,2	-28,1
282,572	-26,24
282,944	-24,87
283,315	-23,95
283,687	-23,32
284,059	-23,01
284,431	-22,73
284,802	-22,05
285,174	-21,41
285,546	-20,83
285,917	-20,21
286,289	-19,74
286,66	-19,47
287,032	-19,03
287,403	-18,8
287,775	-18,62
288,146	-18,76
288,518	-19,15
288,889	-19,45
289,26	-19,88
289,632	-20,53
290,003	-21,32
290,374	-21,79
290,745	-22,01
291,116	-22,12
291,487	-22,25
291,858	-22,19
292,229	-22,13
292,6	-22,09
292,971	-21,44
293,342	-20,83
293,713	-20,2
294,084	-19,54
294,455	-18,69
294,826	-18,3
295,196	-18,22
295,567	-18,36
295,938	-18,2
296,308	-17,91
296,679	-17,65
297,05	-17,34
297,42	-16,86
297,791	-16,34
298,161	-16,2
298,532	-16
298,902	-15,75
299,272	-15,49
299,643	-15,29
300,013	-14,83
300,383	-14,52
300,754	-14,59
301,124	-14,94
301,494	-15,39
301,864	-15,88
302,234	-16,52
302,604	-16,85
302,974	-16,82
303,344	-16,48
303,714	-16,13
304,084	-15,77
304,454	-15,42
304,824	-15,26
305,194	-15,27
305,563	-15,22
305,933	-14,95
306,303	-14,61
306,673	-14,29
307,042	-13,78
307,412	-13,12
307,781	-12,44
308,151	-11,92
308,521	-11,55
308,89	-11,12
309,259	-11,01
309,629	-10,89
309,998	-10,75
310,368	-10,64
310,737	-10,48
311,106	-10,37
311,475	-10,27
311,845	-10,28
312,214	-10,32
312,583	-10,26
312,952	-10,26
313,321	-10,26
313,69	-10,03
314,059	-9,96
314,428	-10,07
314,797	-10,31
315,166	-10,72
315,535	-11,25
315,904	-11,75
316,272	-12,06
316,641	-12,22
317,01	-12,14
317,379	-12,07
317,747	-11,89
318,116	-11,54
318,484	-11,33
318,853	-11,22
319,221	-11,15
319,59	-11,13
319,958	-10,95
320,327	-10,79
320,695	-10,64
321,063	-10,48
321,432	-10,4
321,8	-10,1
322,168	-9,82
322,536	-9,65
322,905	-9,29
323,273	-8,95
323,641	-8,67
324,009	-8,41
324,377	-8,31
324,745	-8,08
325,113	-7,75
325,481	-7,49
325,849	-7,39
326,216	-7,24
326,584	-6,97
326,952	-6,73
327,32	-6,44
327,687	-6,32
328,055	-6,09
328,423	-5,91
328,79	-5,81
329,158	-5,78
329,525	-5,84
329,893	-5,82
330,26	-5,71
330,628	-5,67
330,995	-5,57
331,362	-5,49
331,73	-5,46
332,097	-5,33
332,464	-5,22
332,831	-5,11
333,199	-5,05
333,566	-4,96
333,933	-4,88
334,3	-4,81
334,667	-4,8
335,034	-4,79
335,401	-4,72
335,768	-4,73
336,135	-4,69
336,502	-4,65
336,868	-4,62
337,235	-4,56
337,602	-4,44
337,969	-4,27
338,335	-4,12
338,702	-3,99
339,069	-3,89
339,435	-3,85
339,802	-3,76
340,168	-3,74
340,535	-3,68
340,901	-3,64
341,267	-3,59
341,634	-3,5
342	-3,44
342,366	-3,32
342,733	-3,21
343,099	-3,09
343,465	-3,06
343,831	-3,05
344,197	-2,96
344,563	-2,91
344,929	-2,87
345,295	-2,77
345,661	-2,7
346,027	-2,68
346,393	-2,69
346,759	-2,64
347,125	-2,58
347,491	-2,57
347,856	-2,56
348,222	-2,59
348,588	-2,45
348,953	-2,32
349,319	-2,31
349,684	-2,26
350,05	-2,23
350,415	-2,19
350,781	-2,19
351,146	-2,1
351,512	-1,93
351,877	-1,85
352,242	-1,73
352,608	-1,58
352,973	-1,48
353,338	-1,4
353,703	-1,28
354,068	-1,23
354,433	-1,16
354,798	-1,08
355,164	-0,98
355,528	-0,86
355,893	-0,8
356,258	-0,81
356,623	-0,75
356,988	-0,58
357,353	-0,5
357,718	-0,46
358,082	-0,38
358,447	-0,29
358,812	-0,18
359,176	-0,12
359,541	0,01
359,905	0,07
360,27	0,08
360,634	0,09
360,999	0,14
361,363	0,17
361,728	0,24
362,092	0,3
362,456	0,36
362,821	0,42
363,185	0,48
363,549	0,6
363,913	0,68
364,277	0,69
364,641	0,65
365,005	0,71
365,369	0,75
365,733	0,82
366,097	0,89
366,461	0,94
366,825	1,04
367,189	1,11
367,553	1,21
367,916	1,38
368,28	1,53
368,644	1,61
369,007	1,69
369,371	1,79
369,734	1,87
370,098	1,97
370,461	2,07
370,825	2,17
371,188	2,24
371,552	2,33
371,915	2,39
372,278	2,51
372,642	2,62
373,005	2,75
373,368	2,88
373,731	2,97
374,094	3,04
374,457	3,08
374,82	3,16
375,183	3,21
375,546	3,22
375,909	3,25
376,272	3,34
376,635	3,45
376,998	3,51
377,361	3,6
377,723	3,68
378,086	3,74
378,449	3,76
378,811	3,79
379,174	3,85
379,537	3,92
379,899	3,97
380,262	4
380,624	4,06
380,987	4,1
381,349	4,16
381,711	4,22
382,074	4,29
382,436	4,33
382,798	4,4
383,16	4,45
383,522	4,53
383,884	4,58
384,247	4,62
384,609	4,68
384,971	4,7
385,333	4,7
385,695	4,72
386,056	4,77
386,418	4,81
386,78	4,82
387,142	4,84
387,504	4,85
387,865	4,87
388,227	4,88
388,589	4,89
388,95	4,9
389,312	4,91
389,673	4,94
390,035	4,95
390,396	4,95
390,758	4,98
391,119	4,98
391,48	4,99
391,842	4,99
392,203	5
392,564	5,03
392,925	5,09
393,286	5,11
393,648	5,14
394,009	5,18
394,37	5,2
394,731	5,23
395,092	5,24
395,452	5,26
395,813	5,3
396,174	5,32
396,535	5,33
396,896	5,35
397,257	5,37
397,617	5,42
397,978	5,46
398,338	5,48
398,699	5,51
399,06	5,55
399,42	5,56
399,781	5,57
400,141	5,55
400,501	5,54
400,862	5,54
401,222	5,55
401,582	5,57
401,943	5,61
402,303	5,62
402,663	5,66
403,023	5,67
403,383	5,68
403,743	5,67
404,103	5,69
404,463	5,71
404,823	5,76
405,183	5,76
405,543	5,76
405,903	5,76
406,262	5,75
406,622	5,69
406,982	5,69
407,342	5,69
407,701	5,73
408,061	5,74
408,42	5,76
408,78	5,78
409,139	5,77
409,499	5,76
409,858	5,76
410,217	5,76
410,577	5,74
410,936	5,73
411,295	5,72
411,655	5,71
412,014	5,68
412,373	5,63
412,732	5,61
413,091	5,58
413,45	5,53
413,809	5,5
414,168	5,47
414,527	5,43
414,886	5,4
415,245	5,36
415,603	5,33
415,962	5,29
416,321	5,25
416,679	5,21
417,038	5,16
417,397	5,12
417,755	5,06
418,114	5,05
418,472	5,04
418,831	5,04
419,189	5,02
419,547	5
419,906	4,98
420,264	4,95
420,622	4,93
420,981	4,92
421,339	4,92
421,697	4,92
422,055	4,95
422,413	4,97
422,771	4,99
423,129	5,01
423,487	5,03
423,845	5,03
424,203	5,06
424,56	5,1
424,918	5,14
425,276	5,19
425,634	5,23
425,991	5,24
426,349	5,26
426,707	5,3
427,064	5,35
427,422	5,39
427,779	5,43
428,137	5,49
428,494	5,54
428,851	5,56
429,209	5,58
429,566	5,55
429,923	5,52
430,28	5,49
430,637	5,47
430,995	5,47
431,352	5,47
431,709	5,48
432,066	5,48
432,423	5,49
432,78	5,48
433,137	5,47
433,493	5,46
433,85	5,47
434,207	5,44
434,564	5,42
434,92	5,42
435,277	5,41
435,634	5,38
435,99	5,36
436,347	5,35
436,703	5,34
437,06	5,33
437,416	5,34
437,773	5,33
438,129	5,32
438,485	5,32
438,841	5,31
439,198	5,31
439,554	5,3
439,91	5,28
440,266	5,28
440,622	5,27
440,978	5,27
441,334	5,21
441,69	5,19
442,046	5,17
442,402	5,14
442,758	5,13
443,113	5,14
443,469	5,14
443,825	5,13
444,181	5,14
444,536	5,17
444,892	5,19
445,247	5,21
445,603	5,22
445,958	5,22
446,314	5,23
446,669	5,23
447,025	5,25
447,38	5,26
447,735	5,28
448,09	5,28
448,446	5,29
448,801	5,32
449,156	5,34
449,511	5,37
449,866	5,42
450,221	5,46
450,576	5,49
450,931	5,53
451,286	5,56
451,641	5,58
451,995	5,59
452,35	5,62
452,705	5,62
453,06	5,62
453,414	5,64
453,769	5,64
454,123	5,64
454,478	5,63
454,832	5,64
455,187	5,59
455,541	5,57
455,896	5,55
456,25	5,52
456,604	5,49
456,958	5,48
457,313	5,46
457,667	5,45
458,021	5,46
458,375	5,46
458,729	5,48
459,083	5,48
459,437	5,48
459,791	5,47
460,145	5,48
460,499	5,49
460,852	5,47
461,206	5,47
461,56	5,47
461,914	5,47
462,267	5,45
462,621	5,46
462,974	5,48
463,328	5,5
463,681	5,52
464,035	5,56
464,388	5,57
464,742	5,57
465,095	5,57
465,448	5,57
465,801	5,55
466,155	5,54
466,508	5,53
466,861	5,51
467,214	5,51
467,567	5,51
467,92	5,51
468,273	5,5
468,626	5,5
468,979	5,48
469,332	5,48
469,684	5,49
470,037	5,51
470,39	5,52
470,743	5,54
471,095	5,55
471,448	5,55
471,8	5,56
472,153	5,59
472,505	5,59
472,858	5,57
473,21	5,59
473,562	5,59
473,915	5,6
474,267	5,6
474,619	5,57
474,971	5,57
475,324	5,55
475,676	5,56
476,028	5,58
476,38	5,6
476,732	5,59
477,084	5,57
477,436	5,54
477,787	5,52
478,139	5,5
478,491	5,5
478,843	5,47
479,195	5,44
479,546	5,36
479,898	5,3
480,249	5,23
480,601	5,15
480,952	5,1
481,304	5,1
481,655	5,11
482,007	5,12
482,358	5,13
482,709	5,14
483,061	5,13
483,412	5,12
483,763	5,1
484,114	5,1
484,465	5,09
484,816	5,09
485,167	5,1
485,518	5,11
485,869	5,12
486,22	5,13
486,571	5,14
486,922	5,17
487,272	5,2
487,623	5,23
487,974	5,27
488,324	5,29
488,675	5,29
489,025	5,29
489,376	5,29
489,726	5,28
490,077	5,28
490,427	5,3
490,778	5,32
491,128	5,35
491,478	5,38
491,828	5,41
492,179	5,44
492,529	5,45
492,879	5,44
493,229	5,43
493,579	5,43
493,929	5,43
494,279	5,44
494,629	5,44
494,979	5,48
495,328	5,52
495,678	5,58
496,028	5,61
496,378	5,64
496,727	5,64
497,077	5,66
497,426	5,67
497,776	5,66
498,125	5,64
498,475	5,63
498,824	5,63
499,174	5,63
499,523	5,63
499,872	5,65
500,221	5,66
500,571	5,65
500,92	5,66
501,269	5,65
501,618	5,64
501,967	5,64
502,316	5,65
502,665	5,64
503,014	5,63
503,363	5,62
503,711	5,62
504,06	5,62
504,409	5,59
504,758	5,57
505,106	5,56
505,455	5,56
505,803	5,55
506,152	5,54
506,5	5,54
506,849	5,54
507,197	5,53
507,546	5,53
507,894	5,54
508,242	5,55
508,59	5,54
508,939	5,53
509,287	5,53
509,635	5,52
509,983	5,54
510,331	5,53
510,679	5,55
511,027	5,55
511,375	5,56
511,723	5,58
512,07	5,59
512,418	5,62
512,766	5,63
513,114	5,65
513,461	5,66
513,809	5,66
514,156	5,65
514,504	5,64
514,851	5,62
515,199	5,61
515,546	5,6
515,893	5,62
516,241	5,63
516,588	5,63
516,935	5,66
517,282	5,67
517,63	5,69
517,977	5,69
518,324	5,7
518,671	5,71
519,018	5,71
519,365	5,71
519,711	5,71
520,058	5,71
520,405	5,71
520,752	5,72
521,099	5,72
521,445	5,75
521,792	5,74
522,138	5,74
522,485	5,73
522,832	5,72
523,178	5,72
523,524	5,71
523,871	5,73
524,217	5,69
524,563	5,62
524,91	5,54
525,256	5,46
525,602	5,43
525,948	5,42
526,294	5,42
526,64	5,43
526,986	5,43
527,332	5,45
527,678	5,45
528,024	5,45
528,37	5,46
528,716	5,45
529,061	5,46
529,407	5,46
529,753	5,45
530,098	5,45
530,444	5,44
530,789	5,45
531,135	5,44
531,48	5,46
531,826	5,5
532,171	5,54
532,516	5,59
532,862	5,63
533,207	5,63
533,552	5,62
533,897	5,62
534,242	5,61
534,587	5,6
534,932	5,61
535,277	5,63
535,622	5,62
535,967	5,65
536,312	5,66
536,657	5,69
537,001	5,71
537,346	5,7
537,691	5,67
538,035	5,63
538,38	5,59
538,724	5,57
539,069	5,56
539,413	5,57
539,758	5,59
540,102	5,61
540,446	5,63
540,791	5,65
541,135	5,66
541,479	5,67
541,823	5,68
542,167	5,66
542,512	5,66
542,856	5,65
543,2	5,63
543,543	5,61
543,887	5,6
544,231	5,62
544,575	5,65
544,919	5,7
545,262	5,76
545,606	5,82
545,95	5,84
546,293	5,85
546,637	5,84
546,98	5,84
547,324	5,81
547,667	5,82
548,011	5,81
548,354	5,8
548,697	5,77
549,04	5,75
549,384	5,74
549,727	5,71
550,07	5,72
550,413	5,72
550,756	5,74
551,099	5,75
551,442	5,74
551,785	5,73
552,128	5,72
552,47	5,68
552,813	5,65
553,156	5,64
553,499	5,63
553,841	5,63
554,184	5,62
554,526	5,61
554,869	5,58
555,211	5,56
555,554	5,54
555,896	5,53
556,238	5,52
556,581	5,5
556,923	5,47
557,265	5,44
557,607	5,43
557,949	5,4
558,291	5,38
558,633	5,37
558,975	5,35
559,317	5,31
559,659	5,28
560,001	5,27
560,343	5,25
560,685	5,23
561,026	5,2
561,368	5,17
561,71	5,15
562,051	5,12
562,393	5,09
562,734	5,05
563,076	5,03
563,417	5,02
563,759	5,03
564,1	5,03
564,441	5,03
564,782	5
565,124	4,97
565,465	4,96
565,806	4,94
566,147	4,92
566,488	4,89
566,829	4,87
567,17	4,86
567,511	4,85
567,851	4,83
568,192	4,8
568,533	4,76
568,874	4,73
569,214	4,74
569,555	4,73
569,895	4,74
570,236	4,73
570,576	4,71
570,917	4,69
571,257	4,65
571,598	4,62
571,938	4,61
572,278	4,62
572,618	4,61
572,959	4,63
573,299	4,63
573,639	4,62
573,979	4,61
574,319	4,57
574,659	4,54
574,999	4,53
575,339	4,53
575,678	4,54
576,018	4,54
576,358	4,51
576,698	4,5
577,037	4,48
577,377	4,47
577,716	4,44
578,056	4,41
578,395	4,38
578,735	4,37
579,074	4,33
579,413	4,3
579,753	4,25
580,092	4,17
580,431	4,13
580,77	4,12
581,109	4,09
581,448	4,09
581,787	4,06
582,126	4,05
582,465	4,01
582,804	3,97
583,143	3,94
583,482	3,93
583,82	3,91
584,159	3,87
584,498	3,86
584,836	3,85
585,175	3,84
585,514	3,85
585,852	3,86
586,19	3,87
586,529	3,86
586,867	3,85
587,205	3,86
587,544	3,87
587,882	3,86
588,22	3,86
588,558	3,85
588,896	3,86
589,234	3,82
589,572	3,82
589,91	3,81
590,248	3,8
590,586	3,79
590,924	3,8
591,262	3,8
591,599	3,8
591,937	3,78
592,275	3,78
592,612	3,77
592,95	3,75
593,287	3,74
593,625	3,73
593,962	3,74
594,299	3,76
594,637	3,78
594,974	3,8
595,311	3,81
595,648	3,83
595,985	3,84
596,322	3,86
596,659	3,87
596,996	3,88
597,333	3,86
597,67	3,83
598,007	3,82
598,344	3,8
598,681	3,8
599,017	3,79
599,354	3,8
599,691	3,8
600,027	3,8
600,364	3,81
600,7	3,83
601,037	3,84
601,373	3,84
601,71	3,85
602,046	3,87
602,382	3,89
602,718	3,92
603,054	3,94
603,391	3,96
603,727	3,99
604,063	4,01
604,399	4,04
604,735	4,09
605,071	4,09
605,406	4,09
605,742	4,09
606,078	4,09
606,414	4,11
606,749	4,14
607,085	4,16
607,421	4,16
607,756	4,16
608,092	4,14
608,427	4,14
608,762	4,12
609,098	4,07
609,433	4,02
609,768	3,96
610,104	3,92
610,439	3,88
610,774	3,85
611,109	3,83
611,444	3,79
611,779	3,77
612,114	3,78
612,449	3,8
612,784	3,78
613,118	3,76
613,453	3,73
613,788	3,68
614,123	3,62
614,457	3,57
614,792	3,52
615,126	3,5
615,461	3,47
615,795	3,43
616,13	3,4
616,464	3,4
616,798	3,39
617,132	3,38
617,467	3,36
617,801	3,34
618,135	3,33
618,469	3,35
618,803	3,36
619,137	3,34
619,471	3,34
619,805	3,33
620,139	3,33
620,472	3,34
620,806	3,34
621,14	3,34
621,473	3,32
621,807	3,3
622,141	3,27
622,474	3,27
622,808	3,27
623,141	3,29
623,474	3,32
623,808	3,36
624,141	3,39
624,474	3,44
624,807	3,47
625,141	3,47
625,474	3,51
625,807	3,53
626,14	3,53
626,473	3,53
626,806	3,55
627,138	3,57
627,471	3,56
627,804	3,58
628,137	3,59
628,469	3,63
628,802	3,65
629,135	3,65
629,467	3,64
629,8	3,64
630,132	3,64
630,465	3,62
630,797	3,58
631,129	3,55
631,461	3,52
631,794	3,5
632,126	3,5
632,458	3,46
632,79	3,43
633,122	3,43
633,454	3,41
633,786	3,39
634,118	3,37
634,45	3,37
634,781	3,35
635,113	3,36
635,445	3,35
635,777	3,36
636,108	3,38
636,44	3,39
636,771	3,38
637,103	3,37
637,434	3,37
637,765	3,37
638,097	3,36
638,428	3,33
638,759	3,32
639,09	3,31
639,422	3,32
639,753	3,29
640,084	3,26
640,415	3,24
640,746	3,21
641,077	3,22
641,407	3,22
641,738	3,21
642,069	3,2
642,4	3,21
642,73	3,19
643,061	3,18
643,392	3,14
643,722	3,15
644,053	3,15
644,383	3,13
644,713	3,12
645,044	3,15
645,374	3,17
645,704	3,18
646,034	3,18
646,365	3,16
646,695	3,16
647,025	3,18
647,355	3,23
647,685	3,29
648,015	3,3
648,344	3,31
648,674	3,32
649,004	3,3
649,334	3,28
649,663	3,3
649,993	3,34
650,323	3,42
650,652	3,41
650,982	3,42
651,311	3,41
651,64	3,4
651,97	3,41
652,299	3,4
652,628	3,42
652,958	3,43
653,287	3,45
653,616	3,47
653,945	3,46
654,274	3,42
654,603	3,39
654,932	3,36
655,261	3,33
655,589	3,31
655,918	3,33
656,247	3,37
656,576	3,37
656,904	3,39
657,233	3,39
657,561	3,42
657,89	3,46
658,218	3,51
658,547	3,54
658,875	3,55
659,203	3,56
659,532	3,55
659,86	3,53
660,188	3,52
660,516	3,53
660,844	3,51
661,172	3,5
661,5	3,51
661,828	3,52
662,156	3,55
662,484	3,56
662,811	3,55
663,139	3,51
663,467	3,48
663,794	3,43
664,122	3,39
664,45	3,35
664,777	3,28
665,104	3,21
665,432	3,17
665,759	3,13
666,086	3,12
666,414	3,11
666,741	3,1
667,068	3,11
667,395	3,08
667,722	3,1
668,049	3,09
668,376	3,09
668,703	3,11
669,03	3,1
669,357	3,07
669,683	3,06
670,01	3,06
670,337	3,03
670,663	3,02
670,99	3
671,317	3,01
671,643	3,01
671,969	2,99
672,296	2,99
672,622	2,97
672,948	2,94
673,275	2,92
673,601	2,9
673,927	2,89
674,253	2,91
674,579	2,91
674,905	2,9
675,231	2,87
675,557	2,84
675,883	2,83
676,209	2,86
676,534	2,9
676,86	2,93
677,186	2,97
677,511	3
677,837	3,04
678,162	3,07
678,488	3,11
678,813	3,16
679,139	3,2
679,464	3,23
679,789	3,25
680,114	3,26
680,44	3,25
680,765	3,24
681,09	3,2
681,415	3,16
681,74	3,16
682,065	3,18
682,39	3,21
682,714	3,2
683,039	3,18
683,364	3,17
683,689	3,16
684,013	3,13
684,338	3,13
684,662	3,09
684,987	3,07
685,311	3,08
685,636	3,09
685,96	3,06
686,284	3,02
686,608	2,96
686,933	2,94
687,257	3
687,581	3,07
687,905	3,12
688,229	3,16
688,553	3,15
688,877	3,14
689,201	3,12
689,524	3,12
689,848	3,11
690,172	3,07
690,496	3
690,819	2,97
691,143	2,98
691,466	2,99
691,79	2,95
692,113	2,86
692,436	2,8
692,76	2,82
693,083	2,86
693,406	2,9
693,729	2,88
694,053	2,8
694,376	2,73
694,699	2,69
695,022	2,71
695,344	2,79
695,667	2,87
695,99	2,96
696,313	3,06
696,636	3,18
696,958	3,31
697,281	3,47
697,604	3,56
697,926	3,58
698,249	3,55
698,571	3,55
698,893	3,54
699,216	3,52
699,538	3,49
699,86	3,51
700,182	3,54
700,504	3,56
700,827	3,53
701,149	3,48
701,471	3,46
701,793	3,4
702,114	3,33
702,436	3,23
702,758	3,08
703,08	2,9
703,401	2,71
703,723	2,5
704,045	2,33
704,366	2,17
704,688	2,1
705,009	2,09
705,331	2,12
705,652	2,18
705,973	2,22
706,294	2,22
706,616	2,17
706,937	2,15
707,258	2,13
707,579	2,16
707,9	2,17
708,221	2,19
708,542	2,24
708,863	2,24
709,183	2,26
709,504	2,31
709,825	2,37
710,145	2,42
710,466	2,46
710,787	2,46
711,107	2,49
711,427	2,48
711,748	2,45
712,068	2,47
712,388	2,52
712,709	2,58
713,029	2,63
713,349	2,63
713,669	2,62
713,989	2,66
714,309	2,74
714,629	2,79
714,949	2,78
715,269	2,74
715,589	2,77
715,908	2,76
716,228	2,72
716,548	2,73
716,867	2,72
717,187	2,71
717,506	2,74
717,826	2,72
718,145	2,77
718,465	2,85
718,784	2,81
719,103	2,76
719,422	2,68
719,741	2,67
720,061	2,71
720,38	2,82
720,699	2,92
721,018	2,93
721,336	3,06
721,655	3,21
721,974	3,39
722,293	3,56
722,612	3,76
722,93	3,97
723,249	4,12
723,567	4,19
723,886	4,26
724,204	4,36
724,523	4,52
724,841	4,69
725,159	4,8
725,477	5,01
725,796	5,13
726,114	5,34
726,432	5,5
726,75	5,62
727,068	5,72
727,386	5,84
727,704	5,99
728,022	6,13
728,339	6,25
728,657	6,31
728,975	6,35
729,292	6,41
729,61	6,46
729,928	6,54
730,245	6,72
730,562	6,94
730,88	7,12
731,197	7,26
731,514	7,3
731,832	7,38
732,149	7,46
732,466	7,61
732,783	7,66
733,1	7,77
733,417	7,93
733,734	8,05
734,051	8,09
734,368	8,11
734,684	8,12
735,001	8,13
735,318	8,22
735,634	8,31
735,951	8,37
736,268	8,44
736,584	8,5
736,9	8,61
737,217	8,69
737,533	8,73
737,849	8,8
738,166	8,95
738,482	9,12
738,798	9,27
739,114	9,36
739,43	9,49
739,746	9,55
740,062	9,54
740,378	9,57
740,693	9,66
741,009	9,89
741,325	10,09
741,641	10,19
741,956	10,28
742,272	10,38
742,587	10,51
742,903	10,68
743,218	10,82
743,533	10,93
743,849	10,99
744,164	11,06
744,479	11,14
744,794	11,25
745,109	11,32
745,424	11,33
745,739	11,31
746,054	11,29
746,369	11,29
746,684	11,43
746,999	11,57
747,313	11,62
747,628	11,61
747,943	11,6
748,257	11,71
748,572	11,8
748,886	11,89
749,201	11,98
749,515	12,02
749,829	12,16
750,144	12,28
750,458	12,39
750,772	12,45
751,086	12,54
751,4	12,69
751,714	12,69
752,028	12,74
752,342	12,84
752,656	12,94
752,97	13,1
753,284	13,21
753,597	13,34
753,911	13,58
754,225	13,76
754,538	13,88
754,852	13,95
755,165	14,09
755,478	14,2
755,792	14,22
756,105	14,27
756,418	14,24
756,731	14,2
757,045	14,17
757,358	14,24
757,671	14,34
757,984	14,37
758,297	14,47
758,609	14,51
758,922	14,53
759,235	14,56
759,548	14,53
759,86	14,4
760,173	14,12
760,486	13,86
760,798	13,6
761,111	13,36
761,423	13,18
761,735	13,03
762,048	12,99
762,36	13,08
762,672	13,16
762,984	13,22
763,296	13,27
763,608	13,42
763,92	13,51
764,232	13,47
764,544	13,48
764,856	13,54
765,168	13,66
765,48	13,82
765,791	13,89
766,103	14,02
766,414	14,22
766,726	14,62
767,037	15,01
767,349	15,49
767,66	16,06
767,972	16,63
768,283	17,12
768,594	17,53
768,905	17,72
769,216	17,94
769,527	18,25
769,838	18,51
770,149	18,69
770,46	18,98
770,771	19,37
771,082	19,6
771,393	19,78
771,703	20
772,014	20,23
772,324	20,4
772,635	20,47
772,945	20,54
773,256	20,56
773,566	20,58
773,877	20,56
774,187	20,51
774,497	20,62
774,807	20,74
775,117	20,77
775,427	20,83
775,737	20,89
776,047	20,89
776,357	21,06
776,667	21,2
776,977	21,32
777,287	21,35
777,596	21,46
777,906	21,62
778,216	21,73
778,525	21,89
778,835	22,22
779,144	22,72
779,453	23,13
779,763	23,29
780,072	23,35
780,381	23,62
780,69	23,88
781	24
781,309	24,15
781,618	24,29
781,927	24,78
782,235	25,03
782,544	25,4
782,853	25,78
783,162	25,94
783,471	26,03
783,779	26,19
784,088	26,27
784,396	26,43
784,705	26,56
785,013	26,51
785,322	26,25
785,63	25,99
785,938	25,64
786,246	25,39
786,554	25,39
786,863	25,16
787,171	25,06
787,479	25,08
787,787	25,11
788,094	25,29
788,402	25,14
788,71	25,25
789,018	25,18
789,326	25,05
789,633	25,07
789,941	25
790,248	25,12
790,556	25,26
790,863	25,31
791,171	25,31
791,478	25,46
791,785	25,74
792,092	25,58
792,399	25,66
792,707	26,09
793,014	26,3
793,321	26,62
793,628	26,95
793,934	27,09
794,241	27,14
794,548	26,99
794,855	27
795,161	27,07
795,468	27,11
795,775	27,15
796,081	27,22
796,388	27,39
796,694	27,35
797	27,12
797,307	27,09
797,613	26,94
797,919	26,83
798,225	26,97
798,531	27,42
798,837	27,64
799,143	27,48
799,449	27,44
799,755	27,45
800,061	27,34
800,367	27,44
800,672	27,54
800,978	27,87
801,284	28,09
801,589	27,95
801,895	27,83
802,2	27,79
802,506	27,99
802,811	28
803,116	28,04
803,421	28,18
803,727	28,06
804,032	28,33
804,337	28,55
804,642	28,54
804,947	28,39
805,252	28,44
805,556	28,75
805,861	28,98
806,166	28,88
806,471	28,87
806,775	28,76
807,08	28,72
807,384	28,64
807,689	28,64
807,993	28,87
808,298	29,28
808,602	29,5
808,906	29,49
809,211	29,59
809,515	29,81
809,819	30
810,123	30,26
810,427	30,38
810,731	30,35
811,035	30,44
811,338	30,57
811,642	30,64
811,946	30,65
812,25	30,8
812,553	31,02
812,857	31,12
813,16	31,19
813,464	31,36
813,767	31,39
814,07	31,33
814,374	31,13
814,677	31,01
814,98	30,88
815,283	30,73
815,586	30,57
815,889	30,33
816,192	30,33
816,495	30,3
816,798	29,98
817,101	29,58
817,404	29,01
817,706	28,32
818,009	27,44
818,312	26,39
818,614	25,11
818,917	23,38
819,219	21,34
819,521	19,21
819,824	17,47
820,126	16,14
820,428	15,27
820,73	14,79
821,032	14,27
821,334	13,88
821,636	13,58
821,938	13,41
822,24	13,28
822,542	13,18
822,844	13,13
823,145	13,07
823,447	13,03
823,749	13,01
824,05	12,98
824,352	12,94
824,653	12,93
824,955	12,89
825,256	12,93
825,557	13,07
825,858	13,42
826,16	13,82
826,461	14,31
826,762	14,79
827,063	15,23
827,364	15,78
827,665	16,45
827,965	17,16
828,266	17,73
828,567	18,21
828,868	18,59
829,168	18,83
829,469	19,14
829,769	19,41
830,07	19,71
830,37	20,16
830,67	20,67
830,971	21,23
831,271	21,93
831,571	22,43
831,871	22,92
832,171	23,17
832,471	23,35
832,771	23,51
833,071	23,69
833,371	23,77
833,671	23,84
833,971	23,75
834,27	23,64
834,57	23,69
834,869	23,79
835,169	23,76
835,468	23,85
835,768	23,99
836,067	24,18
836,367	24,41
836,666	24,71
836,965	25,13
837,264	25,53
837,563	26,06
837,862	26,88
838,161	27,59
838,46	28,39
838,759	29,41
839,058	30,32
839,356	31,2
839,655	31,78
839,954	32,26
840,252	32,84
840,551	33,69
840,849	34,35
841,148	34,93
841,446	35,59
841,744	36,18
842,043	36,39
842,341	36,65
842,639	36,8
842,937	37
843,235	37,34
843,533	37,87
843,831	38,46
844,129	39,19
844,427	40,4
844,724	41,64
845,022	42,58
845,32	43,32
845,617	44,43
845,915	45,99
846,212	47,32
846,51	48,08
846,807	48,24
847,104	48,27
847,402	48,32
847,699	48,54
847,996	48,86
848,293	49,4
848,59	49,75
848,887	50,26
849,184	50,31
849,481	50,7
849,778	51,06
850,074	51,57
850,371	52,26
850,668	52,28
850,964	51,9
851,261	51,74
851,557	51,54
851,854	51,36
852,15	51
852,446	51,01
852,743	51,17
853,039	51,44
853,335	51,37
853,631	51,33
853,927	51,62
854,223	51,71
854,519	51,95
854,815	52,33
855,111	52,68
855,406	53,84
855,702	54,93
855,998	56,04
856,293	56,9
856,589	56,98
856,884	57
857,18	57,46
857,475	57,39
857,77	57,79
858,066	58,38
858,361	58,77
858,656	58,97
858,951	58,95
859,246	59,25
859,541	59,57
859,836	59,49
860,131	59,2
860,426	59,25
860,72	59,49
861,015	59,51
861,31	59,29
861,604	58,87
861,899	58,46
862,193	58,1
862,487	57,44
862,782	57
863,076	57,23
863,37	57,37
863,664	57,75
863,959	57,7
864,253	57,02
864,547	56,83
864,841	56,92
865,135	57,36
865,428	57,58
865,722	58,35
866,016	59,35
866,31	59,89
866,603	60
866,897	59,87
867,19	59,65
867,484	60,19
867,777	60,39
868,07	60,33
868,364	60,06
868,657	59,7
868,95	59,42
869,243	59,02
869,536	58,6
869,829	58,68
870,122	59,24
870,415	59,09
870,708	59,23
871	58,95
871,293	58,52
871,586	57,93
871,878	57,1
872,171	56,96
872,463	57,38
872,756	57,46
873,048	56,72
873,341	56,97
873,633	56,64
873,925	56,21
874,217	55,71
874,509	55,35
874,801	55,48
875,093	56,4
875,385	57,06
875,677	57,77
875,969	57,62
