Data from zc74051_1_Reflection_00003.txt Node
Date: Thu Mar 12 15:03:30 ART 2020
User: Ana
Spectrometer: USB2E3644
Trigger mode: 4
Integration Time (sec): 5,000000E-2
Scans to average: 10
Electric dark correction enabled: true
Nonlinearity correction enabled: false
Boxcar width: 10
XAxis mode: Wavelengths
Number of Pixels in Spectrum: 2048
>>>>>Begin Spectral Data<<<<<
178,315	99,69
178,696	103,15
179,076	107,73
179,457	109,61
179,838	119,87
180,218	207,07
180,599	-469,44
180,979	10,53
181,36	287,78
181,74	148,99
182,121	131,48
182,501	112,15
182,881	110,03
183,262	111,61
183,642	110,92
184,022	110,76
184,402	109,74
184,783	108,41
185,163	107,6
185,543	107,47
185,923	108,27
186,303	110,47
186,683	114,39
187,063	117,22
187,443	119,07
187,823	119,31
188,203	119,19
188,583	120,5
188,963	117,86
189,343	115,01
189,723	113,98
190,102	112,43
190,482	110,54
190,862	109,07
191,242	108,69
191,621	109,29
192,001	109,15
192,38	108,52
192,76	108,48
193,14	107,93
193,519	107,15
193,898	106,51
194,278	105,06
194,657	103,17
195,037	101,9
195,416	101,04
195,795	101,12
196,175	102,21
196,554	101,64
196,933	101,92
197,312	103,68
197,692	105,21
198,071	106,41
198,45	108,18
198,829	109,73
199,208	110
199,587	110,12
199,966	111,21
200,345	112,35
200,724	112,38
201,103	112,71
201,482	113,16
201,86	113,34
202,239	112,71
202,618	112,58
202,997	112,93
203,375	114,04
203,754	114,79
204,133	114,82
204,511	115,03
204,89	115,01
205,269	114,18
205,647	113,29
206,026	112,5
206,404	111,5
206,782	110,29
207,161	109,02
207,539	108,44
207,918	108,09
208,296	108,18
208,674	108,88
209,052	109,48
209,431	109,39
209,809	109,26
210,187	110,19
210,565	111,41
210,943	112
211,321	112,08
211,699	111,78
212,077	111,83
212,455	111,56
212,833	111,46
213,211	111,22
213,589	111,66
213,967	113,26
214,345	113,92
214,722	114,06
215,1	114,83
215,478	115,3
215,855	115,81
216,233	115,73
216,611	115,12
216,988	115,23
217,366	115,17
217,743	114,92
218,121	114,43
218,498	113,46
218,876	112,68
219,253	111,5
219,631	110,56
220,008	109,98
220,385	110,02
220,762	110,68
221,14	110,75
221,517	110,74
221,894	109,92
222,271	110,49
222,648	112,07
223,025	112,37
223,402	112,14
223,78	110,71
224,157	109,6
224,533	109,96
224,91	110,5
225,287	112,04
225,664	113,81
226,041	116,76
226,418	119,79
226,795	121,8
227,171	123,39
227,548	125,26
227,925	126,54
228,301	127,38
228,678	126,84
229,055	127,18
229,431	128,13
229,808	128,96
230,184	129,09
230,561	129,5
230,937	130,7
231,313	131,54
231,69	133,85
232,066	137,64
232,442	140,14
232,819	141,34
233,195	141,74
233,571	142,68
233,947	141,48
234,323	140,2
234,699	140,43
235,075	141,48
235,451	143,13
235,827	145,34
236,203	148,26
236,579	152,24
236,955	156,25
237,331	160
237,707	166,36
238,083	175,05
238,459	185,8
238,834	202,28
239,21	225,07
239,586	251,27
239,961	272,5
240,337	289,07
240,713	302,09
241,088	316,55
241,464	330,64
241,839	350,7
242,215	383,38
242,59	470,85
242,965	835,86
243,341	-4503,76
243,716	-561,11
244,091	-323,77
244,467	-245,28
244,842	-202,44
245,217	-172,77
245,592	-156,72
245,967	-152,68
246,343	-147,39
246,718	-144,9
247,093	-148,92
247,468	-154,55
247,843	-154,25
248,218	-147,43
248,593	-134,9
248,967	-123,33
249,342	-116,16
249,717	-111,61
250,092	-108,8
250,467	-110,27
250,841	-118,98
251,216	-139,22
251,591	-171,65
251,965	-208,75
252,34	-245,45
252,714	-293,64
253,089	-355,29
253,463	-406,6
253,838	-412,26
254,212	-403,17
254,587	-366,28
254,961	-296,86
255,335	-233,08
255,71	-180,18
256,084	-130,73
256,458	-99,72
256,832	-82,38
257,206	-72,72
257,581	-67,74
257,955	-65,11
258,329	-62,56
258,703	-59,34
259,077	-56,7
259,451	-54,3
259,825	-53,02
260,199	-52,57
260,572	-51,33
260,946	-50,77
261,32	-50,05
261,694	-48,81
262,068	-48,19
262,441	-47,4
262,815	-47,1
263,189	-46,16
263,562	-46,34
263,936	-49,52
264,309	-55,15
264,683	-61,17
265,056	-64,84
265,43	-65,87
265,803	-64,65
266,176	-63,04
266,55	-62,18
266,923	-61,41
267,296	-59,99
267,67	-57,44
268,043	-55,13
268,416	-52,31
268,789	-48,93
269,162	-45,75
269,535	-43,19
269,908	-41,27
270,281	-40,29
270,654	-40,14
271,027	-40,78
271,4	-41,21
271,773	-41,43
272,146	-41,29
272,519	-41,17
272,891	-41,37
273,264	-41,6
273,637	-41,65
274,01	-41,6
274,382	-42,21
274,755	-42,34
275,127	-42,77
275,5	-43,4
275,872	-43,6
276,245	-44,01
276,617	-45,05
276,99	-46,27
277,362	-47,38
277,734	-47,4
278,107	-46,72
278,479	-45,48
278,851	-44,31
279,223	-43,49
279,596	-42,3
279,968	-41,4
280,34	-40,55
280,712	-39,41
281,084	-37,74
281,456	-36,33
281,828	-34,7
282,2	-32,26
282,572	-30,5
282,944	-29,12
283,315	-28,26
283,687	-27,52
284,059	-27,14
284,431	-26,69
284,802	-25,93
285,174	-25,32
285,546	-24,97
285,917	-24,49
286,289	-24,2
286,66	-23,99
287,032	-23,62
287,403	-23,57
287,775	-23,7
288,146	-23,92
288,518	-24,22
288,889	-24,54
289,26	-24,87
289,632	-25,52
290,003	-26,41
290,374	-26,82
290,745	-26,9
291,116	-26,71
291,487	-26,67
291,858	-26,44
292,229	-26,24
292,6	-25,87
292,971	-24,98
293,342	-23,98
293,713	-22,94
294,084	-21,94
294,455	-20,83
294,826	-20,15
295,196	-19,94
295,567	-19,95
295,938	-19,56
296,308	-19,04
296,679	-18,61
297,05	-18,21
297,42	-17,67
297,791	-17,04
298,161	-16,72
298,532	-16,26
298,902	-15,88
299,272	-15,45
299,643	-15,08
300,013	-14,54
300,383	-14,26
300,754	-14,5
301,124	-14,89
301,494	-15,33
301,864	-15,78
302,234	-16,35
302,604	-16,62
302,974	-16,49
303,344	-16,13
303,714	-16,05
304,084	-15,85
304,454	-15,66
304,824	-15,42
305,194	-15,39
305,563	-15,54
305,933	-15,51
306,303	-15,51
306,673	-15,23
307,042	-14,76
307,412	-14,15
307,781	-13,48
308,151	-12,94
308,521	-12,48
308,89	-11,99
309,259	-11,9
309,629	-11,89
309,998	-11,76
310,368	-11,55
310,737	-11,37
311,106	-11,24
311,475	-11,05
311,845	-11,09
312,214	-11,02
312,583	-10,86
312,952	-10,71
313,321	-10,47
313,69	-10
314,059	-9,73
314,428	-9,72
314,797	-9,85
315,166	-10,22
315,535	-10,8
315,904	-11,28
316,272	-11,59
316,641	-11,95
317,01	-11,89
317,379	-11,73
317,747	-11,48
318,116	-11,28
318,484	-11,13
318,853	-10,93
319,221	-10,83
319,59	-10,76
319,958	-10,55
320,327	-10,35
320,695	-10,17
321,063	-9,9
321,432	-9,75
321,8	-9,44
322,168	-9,24
322,536	-9,17
322,905	-8,8
323,273	-8,43
323,641	-8,13
324,009	-7,89
324,377	-7,67
324,745	-7,43
325,113	-7,11
325,481	-6,81
325,849	-6,63
326,216	-6,42
326,584	-6,22
326,952	-6
327,32	-5,67
327,687	-5,48
328,055	-5,33
328,423	-5,17
328,79	-5,18
329,158	-5,29
329,525	-5,32
329,893	-5,18
330,26	-4,94
330,628	-4,83
330,995	-4,65
331,362	-4,58
331,73	-4,46
332,097	-4,19
332,464	-3,92
332,831	-3,67
333,199	-3,58
333,566	-3,48
333,933	-3,3
334,3	-3,06
334,667	-2,85
335,034	-2,65
335,401	-2,49
335,768	-2,35
336,135	-2,15
336,502	-1,92
336,868	-1,67
337,235	-1,54
337,602	-1,43
337,969	-1,25
338,335	-1,05
338,702	-0,87
339,069	-0,66
339,435	-0,53
339,802	-0,41
340,168	-0,39
340,535	-0,31
340,901	-0,29
341,267	-0,2
341,634	-0,11
342	-0,03
342,366	0,09
342,733	0,12
343,099	0,18
343,465	0,21
343,831	0,19
344,197	0,23
344,563	0,25
344,929	0,28
345,295	0,37
345,661	0,45
346,027	0,51
346,393	0,53
346,759	0,52
347,125	0,52
347,491	0,49
347,856	0,46
348,222	0,37
348,588	0,48
348,953	0,6
349,319	0,61
349,684	0,64
350,05	0,67
350,415	0,71
350,781	0,72
351,146	0,76
351,512	0,87
351,877	0,94
352,242	1,01
352,608	1,12
352,973	1,22
353,338	1,33
353,703	1,45
354,068	1,53
354,433	1,64
354,798	1,78
355,164	1,9
355,528	2,03
355,893	2,17
356,258	2,24
356,623	2,32
356,988	2,48
357,353	2,57
357,718	2,63
358,082	2,72
358,447	2,84
358,812	3,01
359,176	3,12
359,541	3,25
359,905	3,35
360,27	3,46
360,634	3,55
360,999	3,63
361,363	3,67
361,728	3,75
362,092	3,87
362,456	3,98
362,821	4,09
363,185	4,2
363,549	4,35
363,913	4,43
364,277	4,48
364,641	4,52
365,005	4,6
365,369	4,66
365,733	4,76
366,097	4,84
366,461	4,91
366,825	5
367,189	5,08
367,553	5,16
367,916	5,29
368,28	5,39
368,644	5,43
369,007	5,5
369,371	5,63
369,734	5,75
370,098	5,83
370,461	5,92
370,825	5,95
371,188	5,98
371,552	6,04
371,915	6,09
372,278	6,22
372,642	6,31
373,005	6,44
373,368	6,58
373,731	6,65
374,094	6,71
374,457	6,77
374,82	6,87
375,183	6,96
375,546	7,04
375,909	7,12
376,272	7,24
376,635	7,34
376,998	7,39
377,361	7,42
377,723	7,46
378,086	7,49
378,449	7,55
378,811	7,61
379,174	7,7
379,537	7,8
379,899	7,84
380,262	7,87
380,624	7,9
380,987	7,96
381,349	8,06
381,711	8,13
382,074	8,2
382,436	8,3
382,798	8,45
383,16	8,51
383,522	8,57
383,884	8,62
384,247	8,69
384,609	8,79
384,971	8,85
385,333	8,89
385,695	8,96
386,056	9,02
386,418	9,06
386,78	9,08
387,142	9,09
387,504	9,14
387,865	9,19
388,227	9,19
388,589	9,21
388,95	9,28
389,312	9,3
389,673	9,34
390,035	9,35
390,396	9,32
390,758	9,31
391,119	9,31
391,48	9,33
391,842	9,35
392,203	9,32
392,564	9,33
392,925	9,39
393,286	9,43
393,648	9,49
394,009	9,56
394,37	9,6
394,731	9,67
395,092	9,66
395,452	9,68
395,813	9,74
396,174	9,75
396,535	9,74
396,896	9,76
397,257	9,77
397,617	9,8
397,978	9,82
398,338	9,86
398,699	9,92
399,06	9,95
399,42	9,96
399,781	9,98
400,141	9,97
400,501	9,99
400,862	10
401,222	10
401,582	9,99
401,943	10,01
402,303	10,01
402,663	10,05
403,023	10,07
403,383	10,1
403,743	10,11
404,103	10,11
404,463	10,14
404,823	10,17
405,183	10,18
405,543	10,2
405,903	10,22
406,262	10,23
406,622	10,23
406,982	10,24
407,342	10,28
407,701	10,32
408,061	10,34
408,42	10,35
408,78	10,38
409,139	10,39
409,499	10,39
409,858	10,4
410,217	10,42
410,577	10,44
410,936	10,41
411,295	10,4
411,655	10,4
412,014	10,38
412,373	10,37
412,732	10,35
413,091	10,33
413,45	10,29
413,809	10,25
414,168	10,2
414,527	10,17
414,886	10,12
415,245	10,07
415,603	10,02
415,962	9,98
416,321	9,94
416,679	9,92
417,038	9,9
417,397	9,86
417,755	9,84
418,114	9,8
418,472	9,81
418,831	9,79
419,189	9,78
419,547	9,77
419,906	9,74
420,264	9,72
420,622	9,7
420,981	9,69
421,339	9,7
421,697	9,7
422,055	9,7
422,413	9,73
422,771	9,76
423,129	9,8
423,487	9,83
423,845	9,86
424,203	9,88
424,56	9,91
424,918	9,94
425,276	9,97
425,634	10
425,991	10,03
426,349	10,06
426,707	10,12
427,064	10,15
427,422	10,19
427,779	10,27
428,137	10,32
428,494	10,38
428,851	10,41
429,209	10,42
429,566	10,43
429,923	10,39
430,28	10,38
430,637	10,39
430,995	10,36
431,352	10,35
431,709	10,34
432,066	10,34
432,423	10,34
432,78	10,34
433,137	10,35
433,493	10,32
433,85	10,36
434,207	10,32
434,564	10,31
434,92	10,32
435,277	10,3
435,634	10,3
435,99	10,27
436,347	10,25
436,703	10,28
437,06	10,3
437,416	10,31
437,773	10,3
438,129	10,26
438,485	10,28
438,841	10,28
439,198	10,28
439,554	10,26
439,91	10,27
440,266	10,28
440,622	10,28
440,978	10,3
441,334	10,25
441,69	10,25
442,046	10,24
442,402	10,23
442,758	10,21
443,113	10,2
443,469	10,2
443,825	10,21
444,181	10,21
444,536	10,21
444,892	10,23
445,247	10,23
445,603	10,26
445,958	10,28
446,314	10,29
446,669	10,3
447,025	10,31
447,38	10,32
447,735	10,32
448,09	10,32
448,446	10,33
448,801	10,36
449,156	10,39
449,511	10,4
449,866	10,43
450,221	10,48
450,576	10,51
450,931	10,56
451,286	10,57
451,641	10,59
451,995	10,62
452,35	10,64
452,705	10,68
453,06	10,67
453,414	10,67
453,769	10,66
454,123	10,68
454,478	10,7
454,832	10,7
455,187	10,69
455,541	10,68
455,896	10,64
456,25	10,63
456,604	10,61
456,958	10,61
457,313	10,58
457,667	10,56
458,021	10,56
458,375	10,57
458,729	10,61
459,083	10,63
459,437	10,63
459,791	10,62
460,145	10,62
460,499	10,61
460,852	10,6
461,206	10,63
461,56	10,62
461,914	10,62
462,267	10,62
462,621	10,64
462,974	10,63
463,328	10,68
463,681	10,7
464,035	10,73
464,388	10,76
464,742	10,78
465,095	10,81
465,448	10,83
465,801	10,82
466,155	10,8
466,508	10,8
466,861	10,79
467,214	10,78
467,567	10,77
467,92	10,8
468,273	10,81
468,626	10,79
468,979	10,79
469,332	10,79
469,684	10,77
470,037	10,79
470,39	10,81
470,743	10,8
471,095	10,81
471,448	10,81
471,8	10,8
472,153	10,83
472,505	10,83
472,858	10,83
473,21	10,85
473,562	10,85
473,915	10,84
474,267	10,84
474,619	10,85
474,971	10,84
475,324	10,84
475,676	10,86
476,028	10,86
476,38	10,87
476,732	10,88
477,084	10,87
477,436	10,85
477,787	10,85
478,139	10,84
478,491	10,83
478,843	10,83
479,195	10,82
479,546	10,77
479,898	10,73
480,249	10,67
480,601	10,63
480,952	10,6
481,304	10,6
481,655	10,59
482,007	10,57
482,358	10,57
482,709	10,55
483,061	10,53
483,412	10,52
483,763	10,52
484,114	10,51
484,465	10,51
484,816	10,51
485,167	10,49
485,518	10,49
485,869	10,49
486,22	10,5
486,571	10,5
486,922	10,51
487,272	10,52
487,623	10,54
487,974	10,54
488,324	10,55
488,675	10,54
489,025	10,54
489,376	10,54
489,726	10,54
490,077	10,56
490,427	10,57
490,778	10,59
491,128	10,61
491,478	10,61
491,828	10,64
492,179	10,65
492,529	10,66
492,879	10,67
493,229	10,69
493,579	10,69
493,929	10,69
494,279	10,71
494,629	10,73
494,979	10,74
495,328	10,77
495,678	10,81
496,028	10,86
496,378	10,89
496,727	10,92
497,077	10,95
497,426	10,97
497,776	10,97
498,125	10,98
498,475	10,98
498,824	11
499,174	11
499,523	11
499,872	11,02
500,221	11,05
500,571	11,07
500,92	11,08
501,269	11,12
501,618	11,11
501,967	11,12
502,316	11,13
502,665	11,13
503,014	11,13
503,363	11,13
503,711	11,14
504,06	11,14
504,409	11,14
504,758	11,11
505,106	11,1
505,455	11,11
505,803	11,09
506,152	11,09
506,5	11,09
506,849	11,11
507,197	11,1
507,546	11,09
507,894	11,09
508,242	11,09
508,59	11,07
508,939	11,07
509,287	11,06
509,635	11,06
509,983	11,09
510,331	11,08
510,679	11,09
511,027	11,09
511,375	11,09
511,723	11,1
512,07	11,12
512,418	11,14
512,766	11,15
513,114	11,18
513,461	11,19
513,809	11,2
514,156	11,2
514,504	11,22
514,851	11,22
515,199	11,2
515,546	11,17
515,893	11,16
516,241	11,16
516,588	11,16
516,935	11,16
517,282	11,15
517,63	11,17
517,977	11,16
518,324	11,18
518,671	11,19
519,018	11,19
519,365	11,18
519,711	11,2
520,058	11,21
520,405	11,2
520,752	11,19
521,099	11,2
521,445	11,21
521,792	11,2
522,138	11,18
522,485	11,19
522,832	11,21
523,178	11,22
523,524	11,26
523,871	11,27
524,217	11,27
524,563	11,23
524,91	11,21
525,256	11,18
525,602	11,15
525,948	11,15
526,294	11,13
526,64	11,11
526,986	11,09
527,332	11,08
527,678	11,07
528,024	11,08
528,37	11,08
528,716	11,07
529,061	11,07
529,407	11,08
529,753	11,08
530,098	11,07
530,444	11,07
530,789	11,05
531,135	11,03
531,48	11,04
531,826	11,05
532,171	11,05
532,516	11,06
532,862	11,09
533,207	11,08
533,552	11,08
533,897	11,11
534,242	11,13
534,587	11,13
534,932	11,15
535,277	11,16
535,622	11,15
535,967	11,17
536,312	11,19
536,657	11,2
537,001	11,23
537,346	11,25
537,691	11,26
538,035	11,27
538,38	11,28
538,724	11,27
539,069	11,27
539,413	11,27
539,758	11,27
540,102	11,27
540,446	11,27
540,791	11,28
541,135	11,29
541,479	11,29
541,823	11,29
542,167	11,27
542,512	11,28
542,856	11,27
543,2	11,26
543,543	11,24
543,887	11,25
544,231	11,25
544,575	11,25
544,919	11,25
545,262	11,26
545,606	11,28
545,95	11,3
546,293	11,3
546,637	11,32
546,98	11,33
547,324	11,32
547,667	11,35
548,011	11,38
548,354	11,39
548,697	11,4
549,04	11,41
549,384	11,43
549,727	11,4
550,07	11,41
550,413	11,4
550,756	11,39
551,099	11,41
551,442	11,39
551,785	11,39
552,128	11,4
552,47	11,38
552,813	11,38
553,156	11,37
553,499	11,36
553,841	11,36
554,184	11,36
554,526	11,36
554,869	11,32
555,211	11,31
555,554	11,28
555,896	11,25
556,238	11,21
556,581	11,17
556,923	11,13
557,265	11,11
557,607	11,11
557,949	11,11
558,291	11,05
558,633	11,03
558,975	11,02
559,317	11
559,659	10,98
560,001	10,93
560,343	10,93
560,685	10,93
561,026	10,89
561,368	10,85
561,71	10,83
562,051	10,81
562,393	10,81
562,734	10,78
563,076	10,79
563,417	10,79
563,759	10,8
564,1	10,83
564,441	10,81
564,782	10,78
565,124	10,78
565,465	10,8
565,806	10,81
566,147	10,8
566,488	10,76
566,829	10,75
567,17	10,75
567,511	10,73
567,851	10,71
568,192	10,7
568,533	10,68
568,874	10,68
569,214	10,68
569,555	10,64
569,895	10,63
570,236	10,6
570,576	10,58
570,917	10,57
571,257	10,56
571,598	10,57
571,938	10,55
572,278	10,52
572,618	10,49
572,959	10,46
573,299	10,45
573,639	10,44
573,979	10,44
574,319	10,43
574,659	10,42
574,999	10,4
575,339	10,39
575,678	10,38
576,018	10,37
576,358	10,32
576,698	10,29
577,037	10,28
577,377	10,26
577,716	10,24
578,056	10,2
578,395	10,17
578,735	10,11
579,074	10,09
579,413	10,09
579,753	10,08
580,092	10,06
580,431	10,02
580,77	10,03
581,109	10
581,448	9,98
581,787	9,95
582,126	9,94
582,465	9,92
582,804	9,91
583,143	9,92
583,482	9,93
583,82	9,94
584,159	9,94
584,498	9,95
584,836	9,95
585,175	9,94
585,514	9,93
585,852	9,92
586,19	9,92
586,529	9,91
586,867	9,93
587,205	9,93
587,544	9,95
587,882	9,94
588,22	9,96
588,558	9,97
588,896	9,98
589,234	9,97
589,572	9,97
589,91	9,95
590,248	9,91
590,586	9,9
590,924	9,9
591,262	9,89
591,599	9,87
591,937	9,86
592,275	9,85
592,612	9,88
592,95	9,9
593,287	9,89
593,625	9,9
593,962	9,9
594,299	9,94
594,637	9,96
594,974	9,98
595,311	9,98
595,648	10
595,985	10,02
596,322	10,02
596,659	10,05
596,996	10,08
597,333	10,09
597,67	10,07
598,007	10,07
598,344	10,05
598,681	10,06
599,017	10,08
599,354	10,08
599,691	10,07
600,027	10,06
600,364	10,1
600,7	10,12
601,037	10,12
601,373	10,13
601,71	10,13
602,046	10,14
602,382	10,13
602,718	10,13
603,054	10,13
603,391	10,15
603,727	10,13
604,063	10,11
604,399	10,12
604,735	10,15
605,071	10,15
605,406	10,15
605,742	10,16
606,078	10,19
606,414	10,2
606,749	10,22
607,085	10,26
607,421	10,26
607,756	10,25
608,092	10,23
608,427	10,2
608,762	10,19
609,098	10,16
609,433	10,13
609,768	10,11
610,104	10,09
610,439	10,05
610,774	10,03
611,109	10,02
611,444	10
611,779	9,98
612,114	9,98
612,449	9,98
612,784	9,94
613,118	9,89
613,453	9,85
613,788	9,81
614,123	9,76
614,457	9,72
614,792	9,69
615,126	9,68
615,461	9,64
615,795	9,62
616,13	9,6
616,464	9,61
616,798	9,58
617,132	9,57
617,467	9,6
617,801	9,61
618,135	9,62
618,469	9,63
618,803	9,68
619,137	9,7
619,471	9,7
619,805	9,69
620,139	9,68
620,472	9,71
620,806	9,7
621,14	9,7
621,473	9,67
621,807	9,63
622,141	9,63
622,474	9,63
622,808	9,61
623,141	9,62
623,474	9,64
623,808	9,65
624,141	9,69
624,474	9,71
624,807	9,73
625,141	9,75
625,474	9,78
625,807	9,77
626,14	9,77
626,473	9,79
626,806	9,82
627,138	9,84
627,471	9,84
627,804	9,85
628,137	9,87
628,469	9,92
628,802	9,94
629,135	9,93
629,467	9,91
629,8	9,91
630,132	9,91
630,465	9,88
630,797	9,88
631,129	9,84
631,461	9,83
631,794	9,81
632,126	9,82
632,458	9,81
632,79	9,79
633,122	9,78
633,454	9,76
633,786	9,74
634,118	9,73
634,45	9,73
634,781	9,71
635,113	9,7
635,445	9,69
635,777	9,7
636,108	9,72
636,44	9,73
636,771	9,71
637,103	9,7
637,434	9,71
637,765	9,73
638,097	9,75
638,428	9,74
638,759	9,73
639,09	9,68
639,422	9,67
639,753	9,67
640,084	9,64
640,415	9,62
640,746	9,59
641,077	9,6
641,407	9,59
641,738	9,59
642,069	9,58
642,4	9,55
642,73	9,52
643,061	9,52
643,392	9,5
643,722	9,53
644,053	9,58
644,383	9,62
644,713	9,61
645,044	9,58
645,374	9,58
645,704	9,6
646,034	9,63
646,365	9,63
646,695	9,61
647,025	9,63
647,355	9,65
647,685	9,7
648,015	9,72
648,344	9,71
648,674	9,74
649,004	9,73
649,334	9,75
649,663	9,79
649,993	9,8
650,323	9,86
650,652	9,86
650,982	9,85
651,311	9,82
651,64	9,8
651,97	9,84
652,299	9,86
652,628	9,88
652,958	9,89
653,287	9,94
653,616	9,98
653,945	10,03
654,274	10,05
654,603	10,04
654,932	10,03
655,261	10,06
655,589	10,1
655,918	10,18
656,247	10,21
656,576	10,23
656,904	10,27
657,233	10,26
657,561	10,31
657,89	10,32
658,218	10,34
658,547	10,37
658,875	10,37
659,203	10,37
659,532	10,36
659,86	10,36
660,188	10,33
660,516	10,33
660,844	10,31
661,172	10,31
661,5	10,37
661,828	10,39
662,156	10,38
662,484	10,36
662,811	10,33
663,139	10,32
663,467	10,3
663,794	10,25
664,122	10,27
664,45	10,27
664,777	10,25
665,104	10,28
665,432	10,25
665,759	10,23
666,086	10,23
666,414	10,22
666,741	10,22
667,068	10,22
667,395	10,21
667,722	10,22
668,049	10,2
668,376	10,17
668,703	10,17
669,03	10,22
669,357	10,23
669,683	10,19
670,01	10,19
670,337	10,19
670,663	10,18
670,99	10,12
671,317	10,1
671,643	10,1
671,969	10,02
672,296	10,05
672,622	10,06
672,948	10,02
673,275	9,99
673,601	9,92
673,927	9,85
674,253	9,82
674,579	9,78
674,905	9,8
675,231	9,75
675,557	9,73
675,883	9,66
676,209	9,61
676,534	9,61
676,86	9,61
677,186	9,68
677,511	9,77
677,837	9,83
678,162	9,86
678,488	9,9
678,813	10
679,139	10,06
679,464	10,11
679,789	10,14
680,114	10,18
680,44	10,23
680,765	10,29
681,09	10,31
681,415	10,32
681,74	10,32
682,065	10,32
682,39	10,3
682,714	10,32
683,039	10,35
683,364	10,42
683,689	10,41
684,013	10,36
684,338	10,3
684,662	10,28
684,987	10,24
685,311	10,28
685,636	10,27
685,96	10,2
686,284	10,16
686,608	10,16
686,933	10,16
687,257	10,17
687,581	10,16
687,905	10,18
688,229	10,21
688,553	10,19
688,877	10,24
689,201	10,29
689,524	10,31
689,848	10,32
690,172	10,3
690,496	10,33
690,819	10,34
691,143	10,37
691,466	10,41
691,79	10,43
692,113	10,42
692,436	10,41
692,76	10,47
693,083	10,48
693,406	10,45
693,729	10,45
694,053	10,48
694,376	10,49
694,699	10,45
695,022	10,51
695,344	10,61
695,667	10,65
695,99	10,75
696,313	10,86
696,636	10,99
696,958	11,06
697,281	11,13
697,604	11,18
697,926	11,2
698,249	11,24
698,571	11,26
698,893	11,26
699,216	11,27
699,538	11,26
699,86	11,28
700,182	11,32
700,504	11,34
700,827	11,31
701,149	11,28
701,471	11,26
701,793	11,2
702,114	11,13
702,436	11,07
702,758	10,93
703,08	10,74
703,401	10,55
703,723	10,46
704,045	10,33
704,366	10,22
704,688	10,15
705,009	10,04
705,331	9,96
705,652	9,92
705,973	9,87
706,294	9,84
706,616	9,85
706,937	9,86
707,258	9,82
707,579	9,79
707,9	9,8
708,221	9,84
708,542	9,87
708,863	9,86
709,183	9,87
709,504	9,91
709,825	9,98
710,145	9,99
710,466	9,98
710,787	10,04
711,107	10,1
711,427	10,1
711,748	10,14
712,068	10,2
712,388	10,28
712,709	10,41
713,029	10,44
713,349	10,41
713,669	10,37
713,989	10,36
714,309	10,47
714,629	10,58
714,949	10,71
715,269	10,8
715,589	10,84
715,908	10,84
716,228	10,83
716,548	10,86
716,867	10,91
717,187	10,92
717,506	10,98
717,826	11
718,145	11,01
718,465	11,04
718,784	11,02
719,103	10,93
719,422	10,84
719,741	10,82
720,061	10,8
720,38	10,9
720,699	11,06
721,018	11,12
721,336	11,19
721,655	11,16
721,974	11,23
722,293	11,38
722,612	11,62
722,93	11,85
723,249	11,97
723,567	12,15
723,886	12,3
724,204	12,4
724,523	12,54
724,841	12,74
725,159	12,93
725,477	13,15
725,796	13,28
726,114	13,44
726,432	13,64
726,75	13,82
727,068	13,95
727,386	14,02
727,704	14,09
728,022	14,17
728,339	14,32
728,657	14,4
728,975	14,5
729,292	14,55
729,61	14,58
729,928	14,67
730,245	14,78
730,562	14,89
730,88	14,97
731,197	15,06
731,514	15,11
731,832	15,13
732,149	15,18
732,466	15,35
732,783	15,42
733,1	15,53
733,417	15,68
733,734	15,8
734,051	15,89
734,368	15,97
734,684	15,98
735,001	16,04
735,318	16,13
735,634	16,15
735,951	16,18
736,268	16,26
736,584	16,33
736,9	16,33
737,217	16,38
737,533	16,5
737,849	16,59
738,166	16,68
738,482	16,82
738,798	16,9
739,114	17
739,43	17,11
739,746	17,15
740,062	17,26
740,378	17,4
740,693	17,57
741,009	17,79
741,325	18,08
741,641	18,11
741,956	18,1
742,272	18,21
742,587	18,34
742,903	18,45
743,218	18,56
743,533	18,69
743,849	18,84
744,164	18,91
744,479	19,03
744,794	19,23
745,109	19,38
745,424	19,52
745,739	19,58
746,054	19,6
746,369	19,68
746,684	19,74
746,999	19,76
747,313	19,81
747,628	19,76
747,943	19,63
748,257	19,77
748,572	19,97
748,886	20,17
749,201	20,38
749,515	20,45
749,829	20,58
750,144	20,69
750,458	20,71
750,772	20,73
751,086	20,71
751,4	20,69
751,714	20,67
752,028	20,67
752,342	20,72
752,656	20,84
752,97	20,97
753,284	21,01
753,597	21,05
753,911	21,09
754,225	21,19
754,538	21,31
754,852	21,4
755,165	21,48
755,478	21,56
755,792	21,57
756,105	21,66
756,418	21,71
756,731	21,72
757,045	21,82
757,358	22,01
757,671	22,13
757,984	22,25
758,297	22,21
758,609	22,2
758,922	22,22
759,235	22,22
759,548	22,2
759,86	22,13
760,173	22,02
760,486	21,96
760,798	21,86
761,111	21,79
761,423	21,68
761,735	21,59
762,048	21,56
762,36	21,59
762,672	21,65
762,984	21,66
763,296	21,7
763,608	21,72
763,92	21,78
764,232	21,88
764,544	21,93
764,856	22,1
765,168	22,23
765,48	22,32
765,791	22,42
766,103	22,51
766,414	22,7
766,726	23,01
767,037	23,28
767,349	23,53
767,66	23,8
767,972	24,15
768,283	24,53
768,594	24,8
768,905	24,97
769,216	25,15
769,527	25,39
769,838	25,61
770,149	25,83
770,46	25,95
770,771	26,06
771,082	26,21
771,393	26,35
771,703	26,62
772,014	26,92
772,324	27,18
772,635	27,37
772,945	27,5
773,256	27,52
773,566	27,7
773,877	27,92
774,187	28,11
774,497	28,25
774,807	28,4
775,117	28,51
775,427	28,65
775,737	28,79
776,047	29
776,357	29,16
776,667	29,29
776,977	29,53
777,287	29,73
777,596	29,79
777,906	29,95
778,216	29,99
778,525	30,09
778,835	30,23
779,144	30,97
779,453	31,32
779,763	31,64
780,072	31,77
780,381	31,95
780,69	32,08
781	32,23
781,309	32,28
781,618	32,37
781,927	32,58
782,235	32,91
782,544	33,26
782,853	33,67
783,162	34,06
783,471	34,04
783,779	34,13
784,088	34,4
784,396	34,46
784,705	34,48
785,013	34,39
785,322	34,25
785,63	33,6
785,938	33,22
786,246	32,93
786,554	32,94
786,863	32,92
787,171	32,95
787,479	33,04
787,787	33,3
788,094	33,51
788,402	33,36
788,71	33,16
789,018	32,84
789,326	32,5
789,633	32,32
789,941	32,35
790,248	32,34
790,556	32,44
790,863	32,65
791,171	32,83
791,478	33,09
791,785	33,26
792,092	33,31
792,399	33,55
792,707	33,74
793,014	33,52
793,321	33,55
793,628	33,86
793,934	33,8
794,241	33,5
794,548	33,36
794,855	33,46
795,161	33,65
795,468	33,74
795,775	33,84
796,081	33,95
796,388	34,11
796,694	34,15
797	33,87
797,307	33,74
797,613	33,63
797,919	33,52
798,225	33,42
798,531	33,44
798,837	33,42
799,143	33,42
799,449	33,55
799,755	33,63
800,061	33,56
800,367	33,79
800,672	34,08
800,978	34,29
801,284	34,55
801,589	34,45
801,895	34,45
802,2	34,59
802,506	34,61
802,811	34,61
803,116	34,57
803,421	34,54
803,727	34,34
804,032	34,35
804,337	34,39
804,642	34,63
804,947	34,86
805,252	35,07
805,556	35,36
805,861	35,77
806,166	35,72
806,471	35,66
806,775	35,74
807,08	35,75
807,384	35,61
807,689	35,53
807,993	35,62
808,298	35,78
808,602	35,8
808,906	35,77
809,211	35,61
809,515	35,89
809,819	36,21
810,123	36,66
810,427	36,82
810,731	36,9
811,035	36,84
811,338	36,76
811,642	36,61
811,946	36,47
812,25	36,55
812,553	36,8
812,857	36,82
813,16	36,64
813,464	36,58
813,767	36,59
814,07	36,63
814,374	36,7
814,677	36,73
814,98	36,75
815,283	36,79
815,586	36,68
815,889	36,43
816,192	36,44
816,495	36,11
816,798	35,9
817,101	35,64
817,404	35,48
817,706	35,27
818,009	34,88
818,312	34,16
818,614	32,85
818,917	31,11
819,219	29,08
819,521	27,41
819,824	26,05
820,126	25,05
820,428	24,35
820,73	23,85
821,032	23,45
821,334	23,15
821,636	22,96
821,938	22,87
822,24	22,84
822,542	22,82
822,844	22,85
823,145	22,81
823,447	22,73
823,749	22,61
824,05	22,49
824,352	22,4
824,653	22,37
824,955	22,37
825,256	22,51
825,557	22,81
825,858	23,14
826,16	23,52
826,461	23,96
826,762	24,36
827,063	24,76
827,364	25,19
827,665	25,67
827,965	26,11
828,266	26,46
828,567	26,65
828,868	26,82
829,168	26,92
829,469	27,07
829,769	27,2
830,07	27,42
830,37	27,69
830,67	28,1
830,971	28,53
831,271	28,91
831,571	29,08
831,871	29,32
832,171	29,34
832,471	29,45
832,771	29,46
833,071	29,52
833,371	29,65
833,671	29,8
833,971	29,83
834,27	29,88
834,57	30,33
834,869	30,72
835,169	30,88
835,468	31,03
835,768	31,32
836,067	31,65
836,367	32,01
836,666	32,55
836,965	33,05
837,264	33,54
837,563	34,18
837,862	35,11
838,161	35,87
838,46	36,8
838,759	37,5
839,058	38,2
839,356	38,96
839,655	39,48
839,954	40,05
840,252	40,83
840,551	41,76
840,849	42,11
841,148	42,36
841,446	42,53
841,744	42,88
842,043	43,08
842,341	43,46
842,639	43,99
842,937	44,18
843,235	44,42
843,533	44,96
843,831	45,88
844,129	46,56
844,427	47,41
844,724	48,37
845,022	49,47
845,32	50,59
845,617	51,54
845,915	52,71
846,212	53,52
846,51	54,13
846,807	54,1
847,104	54,17
847,402	54,4
847,699	55,36
847,996	56
848,293	57,19
848,59	58,56
848,887	59,13
849,184	59,88
849,481	60,58
849,778	61,43
850,074	61,92
850,371	62,32
850,668	62,62
850,964	62,78
851,261	63
851,557	62,93
851,854	62,95
852,15	62,97
852,446	62,92
852,743	62,25
853,039	62,24
853,335	62,02
853,631	61,86
853,927	61,83
854,223	61,74
854,519	61,54
854,815	61,46
855,111	61,22
855,406	60,82
855,702	60,51
855,998	59,98
856,293	59,59
856,589	59,07
856,884	58,56
857,18	58,88
857,475	59,29
857,77	59,88
858,066	60,42
858,361	60,81
858,656	60,98
858,951	61,59
859,246	62,08
859,541	62,71
859,836	63,55
860,131	63,6
860,426	63,37
860,72	62,99
861,015	61,8
861,31	61,7
861,604	61,91
861,899	62,17
862,193	62,91
862,487	63,03
862,782	63,33
863,076	63,88
863,37	63,35
863,664	62,9
863,959	62,66
864,253	62,58
864,547	62,45
864,841	62,18
865,135	62,41
865,428	62,53
865,722	62,87
866,016	62,62
866,31	62,71
866,603	62,66
866,897	62,79
867,19	63,28
867,484	63,56
867,777	64,04
868,07	64,36
868,364	63,65
868,657	62,89
868,95	62,21
869,243	61,55
869,536	61,75
869,829	61,81
870,122	62,06
870,415	61,63
870,708	61,14
871	61,3
871,293	61,03
871,586	60,28
871,878	59,27
872,171	59,09
872,463	58,82
872,756	58,62
873,048	58,01
873,341	57,82
873,633	57,44
873,925	56,56
874,217	55,65
874,509	55,29
874,801	55,62
875,093	56,36
875,385	56,51
875,677	56,13
875,969	55,8
