Data from zc74051_2_Reflection_00002.txt Node
Date: Thu Mar 12 15:04:02 ART 2020
User: Ana
Spectrometer: USB2E3644
Trigger mode: 4
Integration Time (sec): 5,000000E-2
Scans to average: 10
Electric dark correction enabled: true
Nonlinearity correction enabled: false
Boxcar width: 10
XAxis mode: Wavelengths
Number of Pixels in Spectrum: 2048
>>>>>Begin Spectral Data<<<<<
178,315	137,61
178,696	155,86
179,076	194,99
179,457	209,61
179,838	202,56
180,218	261,62
180,599	-444,44
180,979	105,26
181,36	257,78
181,74	171,72
182,121	137,04
182,501	111,24
182,881	107,79
183,262	107,55
183,642	105,49
184,022	102,9
184,402	99,58
184,783	97,31
185,163	97,57
185,543	101,4
185,923	104,86
186,303	107,41
186,683	111,81
187,063	115,77
187,443	115,9
187,823	112,85
188,203	110,82
188,583	109,88
188,963	107,29
189,343	105,17
189,723	103,98
190,102	103,7
190,482	103,56
190,862	104,09
191,242	104,88
191,621	105,89
192,001	107,09
192,38	107,89
192,76	108,69
193,14	109,87
193,519	110,64
193,898	109,94
194,278	109,15
194,657	107,83
195,037	107,48
195,416	106,76
195,795	106,7
196,175	106,54
196,554	105,9
196,933	106,53
197,312	108,12
197,692	109
198,071	109,86
198,45	111,43
198,829	112,47
199,208	112,72
199,587	113,16
199,966	114,44
200,345	115,87
200,724	116,28
201,103	115,88
201,482	115,7
201,86	115,64
202,239	115,37
202,618	114,94
202,997	115,02
203,375	115,65
203,754	115,92
204,133	116,72
204,511	117,58
204,89	117,9
205,269	117,14
205,647	116,47
206,026	115,92
206,404	115,01
206,782	113,77
207,161	112,57
207,539	111,71
207,918	110,53
208,296	109,89
208,674	109,88
209,052	111,08
209,431	111,71
209,809	112,5
210,187	113,56
210,565	115,07
210,943	115,56
211,321	116,35
211,699	117,62
212,077	117,79
212,455	118,21
212,833	118,29
213,211	118,36
213,589	118,72
213,967	119,74
214,345	120,54
214,722	121,13
215,1	121,72
215,478	122,6
215,855	123,9
216,233	124,97
216,611	125,27
216,988	124,29
217,366	122,84
217,743	121,44
218,121	119,34
218,498	117,28
218,876	115,9
219,253	113,92
219,631	111,16
220,008	109,19
220,385	107,22
220,762	105,94
221,14	105,15
221,517	104,87
221,894	104,01
222,271	102,91
222,648	102,82
223,025	102,51
223,402	102,32
223,78	101,22
224,157	99,44
224,533	98,83
224,91	99,7
225,287	101,32
225,664	103,15
226,041	106,32
226,418	109,15
226,795	110,67
227,171	112,32
227,548	114,88
227,925	117,06
228,301	118,77
228,678	119,21
229,055	119,81
229,431	120,74
229,808	121,6
230,184	123,05
230,561	124,67
230,937	126,43
231,313	127,78
231,69	130,09
232,066	133,84
232,442	136,63
232,819	138,03
233,195	138,34
233,571	139,38
233,947	138,89
234,323	138,32
234,699	139,45
235,075	141,11
235,451	143,5
235,827	146,9
236,203	151,06
236,579	156,63
236,955	161,96
237,331	167,27
237,707	174,62
238,083	183,88
238,459	195,81
238,834	213,46
239,21	236,92
239,586	265,4
239,961	289,99
240,337	308,92
240,713	321,39
241,088	336,76
241,464	350,17
241,839	368,32
242,215	400,47
242,59	489,23
242,965	862,83
243,341	-4627,96
243,716	-572,16
244,091	-328,03
244,467	-246,4
244,842	-202,09
245,217	-171,86
245,592	-156,77
245,967	-153,59
246,343	-147,64
246,718	-144,44
247,093	-147,93
247,468	-152,05
247,843	-150,71
248,218	-142,92
248,593	-130,29
248,967	-118,5
249,342	-111,22
249,717	-107,17
250,092	-105,13
250,467	-107,14
250,841	-115,28
251,216	-133,72
251,591	-163,97
251,965	-198,64
252,34	-233,28
252,714	-279,73
253,089	-337,67
253,463	-383,67
253,838	-385,95
254,212	-376,61
254,587	-342,7
254,961	-277,1
255,335	-216,89
255,71	-166,62
256,084	-121,01
256,458	-92,73
256,832	-77,15
257,206	-68,91
257,581	-64,58
257,955	-61,82
258,329	-59,38
258,703	-56,84
259,077	-54,69
259,451	-52,61
259,825	-51,7
260,199	-51,72
260,572	-50,82
260,946	-50,31
261,32	-49,63
261,694	-48,67
262,068	-48,24
262,441	-47,68
262,815	-47,61
263,189	-47,31
263,562	-48,23
263,936	-51,95
264,309	-57,94
264,683	-64,46
265,056	-68,45
265,43	-69,4
265,803	-68,34
266,176	-66,28
266,55	-65,01
266,923	-63,93
267,296	-62,4
267,67	-59,9
268,043	-57,17
268,416	-53,76
268,789	-50,25
269,162	-47,02
269,535	-44,68
269,908	-42,77
270,281	-41,69
270,654	-41,69
271,027	-42,45
271,4	-42,69
271,773	-42,88
272,146	-42,95
272,519	-42,8
272,891	-42,79
273,264	-43,12
273,637	-43,23
274,01	-43,35
274,382	-44,14
274,755	-44,62
275,127	-45,14
275,5	-45,39
275,872	-45,36
276,245	-45,78
276,617	-46,71
276,99	-47,71
277,362	-48,44
277,734	-48,62
278,107	-48,17
278,479	-46,87
278,851	-45,26
279,223	-44,28
279,596	-42,9
279,968	-41,75
280,34	-40,6
280,712	-39,42
281,084	-37,75
281,456	-36,43
281,828	-34,83
282,2	-32,41
282,572	-30,44
282,944	-29,08
283,315	-28,49
283,687	-28,15
284,059	-27,97
284,431	-27,72
284,802	-27,06
285,174	-26,56
285,546	-26,01
285,917	-25,3
286,289	-24,79
286,66	-24,54
287,032	-24,19
287,403	-24,07
287,775	-23,99
288,146	-24,21
288,518	-24,54
288,889	-24,76
289,26	-24,94
289,632	-25,51
290,003	-26,29
290,374	-26,74
290,745	-27,03
291,116	-26,84
291,487	-26,61
291,858	-26,19
292,229	-25,75
292,6	-25,37
292,971	-24,42
293,342	-23,6
293,713	-22,91
294,084	-22,25
294,455	-21,39
294,826	-20,74
295,196	-20,51
295,567	-20,64
295,938	-20,42
296,308	-19,95
296,679	-19,51
297,05	-19,1
297,42	-18,56
297,791	-18,03
298,161	-17,89
298,532	-17,44
298,902	-17,06
299,272	-16,69
299,643	-16,4
300,013	-15,9
300,383	-15,58
300,754	-15,7
301,124	-15,96
301,494	-16,29
301,864	-16,65
302,234	-17,16
302,604	-17,39
302,974	-17,37
303,344	-17,08
303,714	-16,9
304,084	-16,74
304,454	-16,66
304,824	-16,52
305,194	-16,49
305,563	-16,38
305,933	-16,04
306,303	-15,74
306,673	-15,32
307,042	-14,82
307,412	-14,19
307,781	-13,67
308,151	-13,28
308,521	-12,93
308,89	-12,53
309,259	-12,43
309,629	-12,29
309,998	-12,06
310,368	-11,94
310,737	-11,83
311,106	-11,74
311,475	-11,53
311,845	-11,47
312,214	-11,37
312,583	-11,29
312,952	-11,22
313,321	-11,18
313,69	-10,93
314,059	-10,87
314,428	-10,98
314,797	-11,26
315,166	-11,72
315,535	-12,3
315,904	-12,85
316,272	-13,2
316,641	-13,58
317,01	-13,62
317,379	-13,57
317,747	-13,37
318,116	-13,06
318,484	-12,78
318,853	-12,54
319,221	-12,5
319,59	-12,4
319,958	-12,22
320,327	-11,94
320,695	-11,65
321,063	-11,24
321,432	-11
321,8	-10,66
322,168	-10,42
322,536	-10,25
322,905	-9,76
323,273	-9,28
323,641	-8,83
324,009	-8,49
324,377	-8,19
324,745	-7,86
325,113	-7,51
325,481	-7,24
325,849	-7,15
326,216	-7,06
326,584	-6,9
326,952	-6,71
327,32	-6,46
327,687	-6,36
328,055	-6,2
328,423	-6,07
328,79	-6,16
329,158	-6,29
329,525	-6,43
329,893	-6,38
330,26	-6,2
330,628	-6,19
330,995	-6,18
331,362	-6,2
331,73	-6,19
332,097	-6,12
332,464	-6
332,831	-5,83
333,199	-5,72
333,566	-5,54
333,933	-5,25
334,3	-5
334,667	-4,84
335,034	-4,73
335,401	-4,57
335,768	-4,42
336,135	-4,29
336,502	-4,09
336,868	-3,85
337,235	-3,65
337,602	-3,48
337,969	-3,23
338,335	-2,97
338,702	-2,71
339,069	-2,55
339,435	-2,46
339,802	-2,27
340,168	-2,13
340,535	-1,96
340,901	-1,93
341,267	-1,92
341,634	-1,87
342	-1,82
342,366	-1,7
342,733	-1,62
343,099	-1,5
343,465	-1,48
343,831	-1,44
344,197	-1,37
344,563	-1,31
344,929	-1,2
345,295	-1,05
345,661	-0,96
346,027	-0,93
346,393	-0,9
346,759	-0,73
347,125	-0,56
347,491	-0,48
347,856	-0,45
348,222	-0,49
348,588	-0,3
348,953	-0,07
349,319	0
349,684	0,12
350,05	0,18
350,415	0,34
350,781	0,46
351,146	0,61
351,512	0,74
351,877	0,79
352,242	0,82
352,608	0,89
352,973	0,94
353,338	0,99
353,703	1,06
354,068	1,05
354,433	1,06
354,798	1,13
355,164	1,19
355,528	1,26
355,893	1,31
356,258	1,31
356,623	1,38
356,988	1,52
357,353	1,62
357,718	1,72
358,082	1,77
358,447	1,8
358,812	1,9
359,176	1,95
359,541	2,06
359,905	2,17
360,27	2,25
360,634	2,31
360,999	2,39
361,363	2,46
361,728	2,59
362,092	2,7
362,456	2,75
362,821	2,81
363,185	2,9
363,549	3
363,913	3,05
364,277	3,06
364,641	3,08
365,005	3,15
365,369	3,2
365,733	3,28
366,097	3,38
366,461	3,43
366,825	3,52
367,189	3,6
367,553	3,74
367,916	3,92
368,28	4,07
368,644	4,19
369,007	4,29
369,371	4,42
369,734	4,53
370,098	4,63
370,461	4,76
370,825	4,85
371,188	4,95
371,552	5,06
371,915	5,13
372,278	5,26
372,642	5,33
373,005	5,43
373,368	5,56
373,731	5,65
374,094	5,78
374,457	5,89
374,82	6,05
375,183	6,1
375,546	6,14
375,909	6,23
376,272	6,34
376,635	6,47
376,998	6,58
377,361	6,68
377,723	6,8
378,086	6,9
378,449	6,98
378,811	7,04
379,174	7,15
379,537	7,25
379,899	7,3
380,262	7,38
380,624	7,47
380,987	7,53
381,349	7,58
381,711	7,63
382,074	7,71
382,436	7,76
382,798	7,89
383,16	7,95
383,522	7,98
383,884	8,04
384,247	8,09
384,609	8,15
384,971	8,21
385,333	8,23
385,695	8,26
386,056	8,31
386,418	8,35
386,78	8,38
387,142	8,42
387,504	8,48
387,865	8,54
388,227	8,56
388,589	8,64
388,95	8,71
389,312	8,72
389,673	8,72
390,035	8,74
390,396	8,74
390,758	8,77
391,119	8,83
391,48	8,83
391,842	8,86
392,203	8,88
392,564	8,91
392,925	8,97
393,286	9,01
393,648	9,04
394,009	9,1
394,37	9,13
394,731	9,16
395,092	9,19
395,452	9,23
395,813	9,29
396,174	9,31
396,535	9,34
396,896	9,39
397,257	9,46
397,617	9,52
397,978	9,56
398,338	9,58
398,699	9,61
399,06	9,67
399,42	9,67
399,781	9,69
400,141	9,7
400,501	9,7
400,862	9,73
401,222	9,75
401,582	9,74
401,943	9,76
402,303	9,78
402,663	9,81
403,023	9,82
403,383	9,82
403,743	9,83
404,103	9,82
404,463	9,84
404,823	9,85
405,183	9,85
405,543	9,86
405,903	9,87
406,262	9,85
406,622	9,82
406,982	9,85
407,342	9,89
407,701	9,93
408,061	9,96
408,42	10
408,78	10,05
409,139	10,06
409,499	10,09
409,858	10,12
410,217	10,13
410,577	10,12
410,936	10,13
411,295	10,12
411,655	10,13
412,014	10,13
412,373	10,12
412,732	10,11
413,091	10,1
413,45	10,06
413,809	10,04
414,168	10,01
414,527	9,96
414,886	9,92
415,245	9,86
415,603	9,81
415,962	9,75
416,321	9,71
416,679	9,66
417,038	9,62
417,397	9,6
417,755	9,58
418,114	9,55
418,472	9,53
418,831	9,52
419,189	9,52
419,547	9,5
419,906	9,48
420,264	9,47
420,622	9,45
420,981	9,45
421,339	9,46
421,697	9,48
422,055	9,49
422,413	9,51
422,771	9,55
423,129	9,58
423,487	9,59
423,845	9,62
424,203	9,67
424,56	9,71
424,918	9,74
425,276	9,76
425,634	9,8
425,991	9,84
426,349	9,88
426,707	9,91
427,064	9,96
427,422	10,01
427,779	10,04
428,137	10,1
428,494	10,16
428,851	10,21
429,209	10,23
429,566	10,24
429,923	10,22
430,28	10,2
430,637	10,21
430,995	10,23
431,352	10,23
431,709	10,22
432,066	10,23
432,423	10,23
432,78	10,25
433,137	10,26
433,493	10,27
433,85	10,3
434,207	10,29
434,564	10,27
434,92	10,28
435,277	10,31
435,634	10,3
435,99	10,28
436,347	10,26
436,703	10,27
437,06	10,26
437,416	10,28
437,773	10,26
438,129	10,25
438,485	10,25
438,841	10,24
439,198	10,24
439,554	10,23
439,91	10,24
440,266	10,24
440,622	10,23
440,978	10,21
441,334	10,16
441,69	10,15
442,046	10,14
442,402	10,12
442,758	10,11
443,113	10,12
443,469	10,12
443,825	10,14
444,181	10,14
444,536	10,16
444,892	10,16
445,247	10,21
445,603	10,23
445,958	10,24
446,314	10,26
446,669	10,27
447,025	10,29
447,38	10,31
447,735	10,32
448,09	10,34
448,446	10,36
448,801	10,4
449,156	10,43
449,511	10,47
449,866	10,52
450,221	10,57
450,576	10,6
450,931	10,64
451,286	10,66
451,641	10,7
451,995	10,74
452,35	10,8
452,705	10,82
453,06	10,81
453,414	10,81
453,769	10,83
454,123	10,83
454,478	10,81
454,832	10,8
455,187	10,79
455,541	10,78
455,896	10,75
456,25	10,74
456,604	10,72
456,958	10,71
457,313	10,71
457,667	10,68
458,021	10,7
458,375	10,72
458,729	10,74
459,083	10,76
459,437	10,76
459,791	10,74
460,145	10,73
460,499	10,75
460,852	10,76
461,206	10,77
461,56	10,79
461,914	10,82
462,267	10,82
462,621	10,86
462,974	10,88
463,328	10,91
463,681	10,92
464,035	10,95
464,388	10,97
464,742	10,98
465,095	11,01
465,448	11,03
465,801	11,01
466,155	11,01
466,508	10,99
466,861	10,99
467,214	11
467,567	10,99
467,92	10,99
468,273	10,98
468,626	10,97
468,979	10,95
469,332	10,94
469,684	10,94
470,037	10,93
470,39	10,94
470,743	10,98
471,095	10,99
471,448	11
471,8	11,01
472,153	11,01
472,505	11,04
472,858	11,02
473,21	11,04
473,562	11,03
473,915	11,02
474,267	11,04
474,619	11,04
474,971	11,04
475,324	11,02
475,676	11,04
476,028	11,05
476,38	11,06
476,732	11,08
477,084	11,09
477,436	11,08
477,787	11,06
478,139	11,04
478,491	11,04
478,843	11,02
479,195	11,02
479,546	10,97
479,898	10,9
480,249	10,84
480,601	10,79
480,952	10,78
481,304	10,8
481,655	10,81
482,007	10,82
482,358	10,82
482,709	10,82
483,061	10,8
483,412	10,8
483,763	10,78
484,114	10,77
484,465	10,76
484,816	10,75
485,167	10,76
485,518	10,78
485,869	10,78
486,22	10,79
486,571	10,79
486,922	10,83
487,272	10,85
487,623	10,88
487,974	10,89
488,324	10,9
488,675	10,89
489,025	10,88
489,376	10,89
489,726	10,9
490,077	10,92
490,427	10,95
490,778	10,96
491,128	10,99
491,478	11,02
491,828	11,06
492,179	11,1
492,529	11,11
492,879	11,09
493,229	11,1
493,579	11,11
493,929	11,11
494,279	11,12
494,629	11,15
494,979	11,17
495,328	11,23
495,678	11,29
496,028	11,34
496,378	11,37
496,727	11,36
497,077	11,37
497,426	11,38
497,776	11,37
498,125	11,38
498,475	11,39
498,824	11,42
499,174	11,42
499,523	11,43
499,872	11,44
500,221	11,47
500,571	11,49
500,92	11,49
501,269	11,51
501,618	11,51
501,967	11,51
502,316	11,51
502,665	11,5
503,014	11,5
503,363	11,5
503,711	11,5
504,06	11,49
504,409	11,5
504,758	11,49
505,106	11,49
505,455	11,47
505,803	11,49
506,152	11,46
506,5	11,46
506,849	11,46
507,197	11,46
507,546	11,47
507,894	11,46
508,242	11,48
508,59	11,44
508,939	11,43
509,287	11,44
509,635	11,46
509,983	11,48
510,331	11,5
510,679	11,52
511,027	11,53
511,375	11,55
511,723	11,57
512,07	11,58
512,418	11,6
512,766	11,64
513,114	11,64
513,461	11,68
513,809	11,69
514,156	11,69
514,504	11,68
514,851	11,65
515,199	11,64
515,546	11,62
515,893	11,64
516,241	11,65
516,588	11,66
516,935	11,67
517,282	11,69
517,63	11,69
517,977	11,68
518,324	11,7
518,671	11,72
519,018	11,7
519,365	11,7
519,711	11,71
520,058	11,71
520,405	11,71
520,752	11,72
521,099	11,73
521,445	11,74
521,792	11,73
522,138	11,74
522,485	11,76
522,832	11,78
523,178	11,78
523,524	11,78
523,871	11,79
524,217	11,78
524,563	11,73
524,91	11,65
525,256	11,6
525,602	11,57
525,948	11,56
526,294	11,57
526,64	11,57
526,986	11,56
527,332	11,55
527,678	11,56
528,024	11,56
528,37	11,57
528,716	11,56
529,061	11,57
529,407	11,57
529,753	11,55
530,098	11,54
530,444	11,54
530,789	11,54
531,135	11,54
531,48	11,54
531,826	11,57
532,171	11,62
532,516	11,66
532,862	11,68
533,207	11,68
533,552	11,66
533,897	11,66
534,242	11,66
534,587	11,67
534,932	11,68
535,277	11,68
535,622	11,69
535,967	11,71
536,312	11,72
536,657	11,74
537,001	11,78
537,346	11,79
537,691	11,78
538,035	11,75
538,38	11,73
538,724	11,72
539,069	11,73
539,413	11,72
539,758	11,74
540,102	11,77
540,446	11,78
540,791	11,79
541,135	11,81
541,479	11,84
541,823	11,84
542,167	11,82
542,512	11,84
542,856	11,82
543,2	11,81
543,543	11,81
543,887	11,81
544,231	11,82
544,575	11,84
544,919	11,89
545,262	11,94
545,606	11,98
545,95	11,99
546,293	11,99
546,637	11,99
546,98	11,99
547,324	11,97
547,667	12
548,011	12,02
548,354	12,02
548,697	12,01
549,04	12
549,384	11,99
549,727	11,97
550,07	11,97
550,413	11,97
550,756	11,98
551,099	11,97
551,442	11,96
551,785	11,96
552,128	11,94
552,47	11,92
552,813	11,92
553,156	11,91
553,499	11,9
553,841	11,92
554,184	11,9
554,526	11,88
554,869	11,84
555,211	11,84
555,554	11,82
555,896	11,8
556,238	11,79
556,581	11,77
556,923	11,73
557,265	11,71
557,607	11,69
557,949	11,68
558,291	11,69
558,633	11,69
558,975	11,68
559,317	11,65
559,659	11,64
560,001	11,61
560,343	11,61
560,685	11,6
561,026	11,56
561,368	11,52
561,71	11,51
562,051	11,48
562,393	11,46
562,734	11,43
563,076	11,44
563,417	11,43
563,759	11,44
564,1	11,46
564,441	11,46
564,782	11,45
565,124	11,44
565,465	11,41
565,806	11,38
566,147	11,36
566,488	11,34
566,829	11,31
567,17	11,29
567,511	11,26
567,851	11,26
568,192	11,25
568,533	11,25
568,874	11,25
569,214	11,26
569,555	11,24
569,895	11,24
570,236	11,21
570,576	11,18
570,917	11,17
571,257	11,14
571,598	11,11
571,938	11,11
572,278	11,1
572,618	11,09
572,959	11,1
573,299	11,11
573,639	11,09
573,979	11,09
574,319	11,07
574,659	11,08
574,999	11,06
575,339	11,06
575,678	11,05
576,018	11,04
576,358	11,01
576,698	11,01
577,037	10,98
577,377	10,96
577,716	10,96
578,056	10,96
578,395	10,96
578,735	10,95
579,074	10,91
579,413	10,87
579,753	10,85
580,092	10,82
580,431	10,8
580,77	10,79
581,109	10,77
581,448	10,75
581,787	10,72
582,126	10,73
582,465	10,72
582,804	10,71
583,143	10,7
583,482	10,69
583,82	10,69
584,159	10,69
584,498	10,67
584,836	10,65
585,175	10,62
585,514	10,59
585,852	10,6
586,19	10,61
586,529	10,62
586,867	10,62
587,205	10,64
587,544	10,65
587,882	10,66
588,22	10,66
588,558	10,69
588,896	10,7
589,234	10,67
589,572	10,68
589,91	10,65
590,248	10,63
590,586	10,61
590,924	10,61
591,262	10,6
591,599	10,59
591,937	10,59
592,275	10,61
592,612	10,61
592,95	10,61
593,287	10,62
593,625	10,63
593,962	10,67
594,299	10,66
594,637	10,65
594,974	10,67
595,311	10,7
595,648	10,7
595,985	10,7
596,322	10,73
596,659	10,73
596,996	10,76
597,333	10,76
597,67	10,77
598,007	10,78
598,344	10,77
598,681	10,79
599,017	10,8
599,354	10,78
599,691	10,75
600,027	10,76
600,364	10,77
600,7	10,8
601,037	10,8
601,373	10,81
601,71	10,84
602,046	10,85
602,382	10,84
602,718	10,84
603,054	10,85
603,391	10,87
603,727	10,88
604,063	10,89
604,399	10,91
604,735	10,93
605,071	10,9
605,406	10,91
605,742	10,93
606,078	10,95
606,414	10,98
606,749	11,02
607,085	11,02
607,421	11,02
607,756	10,99
608,092	10,95
608,427	10,93
608,762	10,91
609,098	10,88
609,433	10,86
609,768	10,85
610,104	10,84
610,439	10,82
610,774	10,79
611,109	10,77
611,444	10,76
611,779	10,74
612,114	10,75
612,449	10,75
612,784	10,71
613,118	10,67
613,453	10,64
613,788	10,59
614,123	10,56
614,457	10,56
614,792	10,53
615,126	10,54
615,461	10,55
615,795	10,52
616,13	10,48
616,464	10,47
616,798	10,44
617,132	10,42
617,467	10,41
617,801	10,4
618,135	10,4
618,469	10,39
618,803	10,39
619,137	10,4
619,471	10,4
619,805	10,41
620,139	10,42
620,472	10,45
620,806	10,46
621,14	10,44
621,473	10,4
621,807	10,39
622,141	10,38
622,474	10,34
622,808	10,35
623,141	10,37
623,474	10,39
623,808	10,45
624,141	10,49
624,474	10,53
624,807	10,57
625,141	10,59
625,474	10,63
625,807	10,66
626,14	10,67
626,473	10,69
626,806	10,69
627,138	10,67
627,471	10,65
627,804	10,66
628,137	10,69
628,469	10,73
628,802	10,76
629,135	10,75
629,467	10,77
629,8	10,78
630,132	10,77
630,465	10,76
630,797	10,71
631,129	10,66
631,461	10,62
631,794	10,61
632,126	10,6
632,458	10,56
632,79	10,54
633,122	10,55
633,454	10,52
633,786	10,47
634,118	10,49
634,45	10,51
634,781	10,51
635,113	10,5
635,445	10,5
635,777	10,49
636,108	10,47
636,44	10,47
636,771	10,47
637,103	10,48
637,434	10,5
637,765	10,51
638,097	10,5
638,428	10,49
638,759	10,45
639,09	10,42
639,422	10,42
639,753	10,42
640,084	10,39
640,415	10,39
640,746	10,44
641,077	10,45
641,407	10,45
641,738	10,45
642,069	10,43
642,4	10,41
642,73	10,39
643,061	10,4
643,392	10,36
643,722	10,37
644,053	10,39
644,383	10,37
644,713	10,35
645,044	10,36
645,374	10,37
645,704	10,39
646,034	10,39
646,365	10,39
646,695	10,39
647,025	10,43
647,355	10,43
647,685	10,43
648,015	10,45
648,344	10,42
648,674	10,41
649,004	10,4
649,334	10,39
649,663	10,43
649,993	10,45
650,323	10,5
650,652	10,46
650,982	10,46
651,311	10,46
651,64	10,46
651,97	10,47
652,299	10,45
652,628	10,47
652,958	10,49
653,287	10,53
653,616	10,53
653,945	10,52
654,274	10,54
654,603	10,53
654,932	10,49
655,261	10,5
655,589	10,52
655,918	10,58
656,247	10,63
656,576	10,64
656,904	10,65
657,233	10,67
657,561	10,74
657,89	10,79
658,218	10,84
658,547	10,88
658,875	10,92
659,203	10,95
659,532	10,97
659,86	10,97
660,188	10,93
660,516	10,95
660,844	10,96
661,172	10,98
661,5	11,01
661,828	11,05
662,156	11,08
662,484	11,09
662,811	11,07
663,139	11,07
663,467	11,08
663,794	11,08
664,122	11,07
664,45	11,04
664,777	10,98
665,104	10,95
665,432	10,91
665,759	10,88
666,086	10,9
666,414	10,9
666,741	10,91
667,068	10,95
667,395	10,93
667,722	10,93
668,049	10,91
668,376	10,88
668,703	10,89
669,03	10,92
669,357	10,93
669,683	10,89
670,01	10,84
670,337	10,8
670,663	10,79
670,99	10,79
671,317	10,79
671,643	10,79
671,969	10,76
672,296	10,81
672,622	10,81
672,948	10,76
673,275	10,74
673,601	10,71
673,927	10,62
674,253	10,6
674,579	10,58
674,905	10,56
675,231	10,54
675,557	10,53
675,883	10,49
676,209	10,48
676,534	10,52
676,86	10,53
677,186	10,56
677,511	10,56
677,837	10,6
678,162	10,63
678,488	10,67
678,813	10,71
679,139	10,76
679,464	10,74
679,789	10,72
680,114	10,74
680,44	10,76
680,765	10,81
681,09	10,82
681,415	10,81
681,74	10,81
682,065	10,82
682,39	10,84
682,714	10,83
683,039	10,85
683,364	10,85
683,689	10,88
684,013	10,86
684,338	10,83
684,662	10,82
684,987	10,79
685,311	10,76
685,636	10,73
685,96	10,67
686,284	10,67
686,608	10,69
686,933	10,65
687,257	10,68
687,581	10,71
687,905	10,74
688,229	10,77
688,553	10,78
688,877	10,79
689,201	10,77
689,524	10,75
689,848	10,72
690,172	10,71
690,496	10,68
690,819	10,63
691,143	10,61
691,466	10,58
691,79	10,53
692,113	10,47
692,436	10,47
692,76	10,47
693,083	10,49
693,406	10,51
693,729	10,51
694,053	10,51
694,376	10,54
694,699	10,52
695,022	10,54
695,344	10,59
695,667	10,65
695,99	10,78
696,313	10,93
696,636	11,06
696,958	11,15
697,281	11,32
697,604	11,47
697,926	11,53
698,249	11,56
698,571	11,57
698,893	11,55
699,216	11,52
699,538	11,51
699,86	11,52
700,182	11,53
700,504	11,53
700,827	11,47
701,149	11,38
701,471	11,35
701,793	11,32
702,114	11,3
702,436	11,2
702,758	11,06
703,08	10,88
703,401	10,66
703,723	10,47
704,045	10,25
704,366	10,08
704,688	10,02
705,009	9,98
705,331	10,03
705,652	10,07
705,973	10,12
706,294	10,1
706,616	10,12
706,937	10,11
707,258	10,12
707,579	10,16
707,9	10,27
708,221	10,33
708,542	10,35
708,863	10,36
709,183	10,43
709,504	10,52
709,825	10,53
710,145	10,6
710,466	10,71
710,787	10,81
711,107	10,91
711,427	10,94
711,748	11,01
712,068	11,08
712,388	11,16
712,709	11,26
713,029	11,34
713,349	11,38
713,669	11,4
713,989	11,44
714,309	11,51
714,629	11,57
714,949	11,66
715,269	11,68
715,589	11,71
715,908	11,73
716,228	11,71
716,548	11,78
716,867	11,78
717,187	11,71
717,506	11,71
717,826	11,68
718,145	11,73
718,465	11,72
718,784	11,63
719,103	11,62
719,422	11,55
719,741	11,47
720,061	11,43
720,38	11,5
720,699	11,55
721,018	11,52
721,336	11,48
721,655	11,41
721,974	11,49
722,293	11,62
722,612	11,77
722,93	11,83
723,249	11,91
723,567	12,09
723,886	12,23
724,204	12,31
724,523	12,43
724,841	12,53
725,159	12,66
725,477	12,89
725,796	12,99
726,114	13,2
726,432	13,42
726,75	13,61
727,068	13,79
727,386	13,94
727,704	14,1
728,022	14,26
728,339	14,48
728,657	14,6
728,975	14,69
729,292	14,77
729,61	14,91
729,928	15,03
730,245	15,17
730,562	15,38
730,88	15,58
731,197	15,74
731,514	15,84
731,832	15,93
732,149	16,03
732,466	16,17
732,783	16,18
733,1	16,25
733,417	16,34
733,734	16,41
734,051	16,44
734,368	16,48
734,684	16,6
735,001	16,66
735,318	16,73
735,634	16,77
735,951	16,76
736,268	16,79
736,584	16,83
736,9	16,81
737,217	16,75
737,533	16,77
737,849	16,85
738,166	16,94
738,482	17,03
738,798	17,14
739,114	17,32
739,43	17,51
739,746	17,64
740,062	17,71
740,378	17,74
740,693	17,83
741,009	18,06
741,325	18,19
741,641	18,2
741,956	18,3
742,272	18,44
742,587	18,65
742,903	18,75
743,218	18,87
743,533	19,04
743,849	19,15
744,164	19,23
744,479	19,31
744,794	19,49
745,109	19,61
745,424	19,64
745,739	19,6
746,054	19,59
746,369	19,58
746,684	19,7
746,999	19,74
747,313	19,87
747,628	19,82
747,943	19,75
748,257	19,88
748,572	19,96
748,886	19,99
749,201	20,12
749,515	20,24
749,829	20,32
750,144	20,37
750,458	20,42
750,772	20,46
751,086	20,49
751,4	20,43
751,714	20,4
752,028	20,44
752,342	20,5
752,656	20,61
752,97	20,78
753,284	20,85
753,597	21,03
753,911	21,16
754,225	21,33
754,538	21,44
754,852	21,54
755,165	21,58
755,478	21,71
755,792	21,67
756,105	21,78
756,418	21,99
756,731	22,17
757,045	22,33
757,358	22,48
757,671	22,59
757,984	22,81
758,297	22,89
758,609	22,98
758,922	23,06
759,235	23,13
759,548	23,08
759,86	22,85
760,173	22,54
760,486	22,31
760,798	22,06
761,111	21,89
761,423	21,67
761,735	21,57
762,048	21,56
762,36	21,62
762,672	21,62
762,984	21,62
763,296	21,63
763,608	21,68
763,92	21,72
764,232	21,74
764,544	21,63
764,856	21,73
765,168	21,81
765,48	21,89
765,791	21,9
766,103	21,96
766,414	22,22
766,726	22,57
767,037	22,91
767,349	23,35
767,66	23,8
767,972	24,4
768,283	24,92
768,594	25,23
768,905	25,48
769,216	25,69
769,527	25,89
769,838	26,03
770,149	26,14
770,46	26,27
770,771	26,48
771,082	26,75
771,393	27
771,703	27,29
772,014	27,58
772,324	27,84
772,635	28,05
772,945	28,3
773,256	28,6
773,566	28,87
773,877	29,02
774,187	29,09
774,497	29,1
774,807	29,17
775,117	29,26
775,427	29,41
775,737	29,44
776,047	29,46
776,357	29,53
776,667	29,69
776,977	29,8
777,287	29,99
777,596	30,23
777,906	30,36
778,216	30,5
778,525	30,69
778,835	30,79
779,144	30,93
779,453	30,92
779,763	30,83
780,072	30,6
780,381	30,54
780,69	30,55
781	30,57
781,309	30,56
781,618	30,52
781,927	30,55
782,235	31
782,544	31,47
782,853	31,99
783,162	32,33
783,471	32,31
783,779	32,38
784,088	32,37
784,396	32,27
784,705	32,19
785,013	31,84
785,322	31,69
785,63	31,73
785,938	31,61
786,246	31,59
786,554	31,94
786,863	32,04
787,171	32,2
787,479	32,29
787,787	32,39
788,094	32,62
788,402	32,67
788,71	32,57
789,018	32,44
789,326	32,17
789,633	32
789,941	32,18
790,248	32,25
790,556	32,41
790,863	32,62
791,171	32,66
791,478	32,97
791,785	33,31
792,092	33,43
792,399	33,83
792,707	34,13
793,014	33,91
793,321	33,9
793,628	34,1
793,934	34,26
794,241	34,36
794,548	34,35
794,855	34,25
795,161	34,2
795,468	34,02
795,775	34,12
796,081	34,17
796,388	34,28
796,694	34,35
797	34,28
797,307	34,18
797,613	34,09
797,919	33,92
798,225	33,86
798,531	33,79
798,837	33,7
799,143	33,62
799,449	33,8
799,755	34,05
800,061	34,12
800,367	34,27
800,672	34,49
800,978	34,68
801,284	34,93
801,589	34,95
801,895	34,96
802,2	34,99
802,506	35,02
802,811	34,72
803,116	34,7
803,421	34,92
803,727	34,98
804,032	35,14
804,337	35,28
804,642	35,41
804,947	35,74
805,252	35,88
805,556	36,1
805,861	36,58
806,166	36,67
806,471	36,67
806,775	36,77
807,08	36,67
807,384	36,56
807,689	36,7
807,993	36,95
808,298	37,49
808,602	37,8
808,906	37,93
809,211	38,21
809,515	38,56
809,819	38,62
810,123	38,84
810,427	39,03
810,731	39,05
811,035	38,9
811,338	38,75
811,642	38,79
811,946	38,7
812,25	38,5
812,553	38,62
812,857	38,84
813,16	38,95
813,464	39,02
813,767	39,29
814,07	39,36
814,374	39,34
814,677	39,04
814,98	38,72
815,283	38,58
815,586	38,52
815,889	38,27
816,192	38,07
816,495	37,56
816,798	37,14
817,101	36,95
817,404	36,66
817,706	36,3
818,009	35,64
818,312	34,88
818,614	33,6
818,917	31,82
819,219	29,3
819,521	27,17
819,824	25,54
820,126	24,38
820,428	23,57
820,73	23,01
821,032	22,57
821,334	22,28
821,636	22,12
821,938	22,02
822,24	21,95
822,542	21,91
822,844	21,92
823,145	21,92
823,447	21,9
823,749	21,88
824,05	21,83
824,352	21,78
824,653	21,75
824,955	21,72
825,256	21,77
825,557	22
825,858	22,36
826,16	22,8
826,461	23,26
826,762	23,83
827,063	24,38
827,364	24,95
827,665	25,51
827,965	26,03
828,266	26,53
828,567	26,87
828,868	27,19
829,168	27,46
829,469	27,54
829,769	27,63
830,07	27,87
830,37	28,15
830,67	28,48
830,971	28,77
831,271	29,17
831,571	29,44
831,871	29,87
832,171	29,92
832,471	29,96
832,771	30,02
833,071	29,98
833,371	30,02
833,671	30,16
833,971	30,27
834,27	30,1
834,57	30,2
834,869	30,44
835,169	30,69
835,468	30,97
835,768	31,49
836,067	31,78
836,367	32,05
836,666	32,47
836,965	33,06
837,264	33,8
837,563	34,58
837,862	35,56
838,161	36,55
838,46	37,81
838,759	38,86
839,058	39,65
839,356	40,24
839,655	40,75
839,954	41,16
840,252	41,44
840,551	42,57
840,849	42,97
841,148	43,26
841,446	43,31
841,744	43,28
842,043	43,24
842,341	43,62
842,639	44,15
842,937	44,29
843,235	44,13
843,533	44,09
843,831	44,92
844,129	45,81
844,427	46,57
844,724	47,36
845,022	48,21
845,32	49,6
845,617	50,91
845,915	52,06
846,212	53,06
846,51	54,32
846,807	54,98
847,104	56,12
847,402	56,94
847,699	58,07
847,996	59,13
848,293	60,34
848,59	61,38
848,887	61,73
849,184	63,19
849,481	64,89
849,778	66,1
850,074	66,51
850,371	66,84
850,668	66,9
850,964	66,79
851,261	66,98
851,557	66,57
851,854	66,26
852,15	66,55
852,446	67,13
852,743	67,24
853,039	67,11
853,335	66,91
853,631	66,6
853,927	66,7
854,223	66,52
854,519	66,55
854,815	66,5
855,111	66,21
855,406	65,46
855,702	64,95
855,998	64,91
856,293	64,94
856,589	65,06
856,884	65,44
857,18	66,04
857,475	66,84
857,77	67,56
858,066	68,29
858,361	68,25
858,656	68,37
858,951	69,11
859,246	69,11
859,541	68,66
859,836	68,63
860,131	67,68
860,426	67,29
860,72	67,27
861,015	67,1
861,31	67,31
861,604	67,63
861,899	68,19
862,193	68,36
862,487	68,27
862,782	67,59
863,076	67,88
863,37	67,61
863,664	67,13
863,959	66,97
864,253	67,01
864,547	67,04
864,841	66,37
865,135	65,68
865,428	65,58
865,722	66,14
866,016	66,06
866,31	66,63
866,603	67,24
866,897	67,05
867,19	66,47
867,484	66,31
867,777	66,65
868,07	66,75
868,364	66,59
868,657	66,2
868,95	66,1
869,243	65,11
869,536	64,86
869,829	64,77
870,122	64,74
870,415	63,89
870,708	63,4
871	63,71
871,293	63,87
871,586	64,12
871,878	64,41
872,171	64,7
872,463	64,43
872,756	63,61
873,048	62,61
873,341	62,98
873,633	63,06
873,925	62,27
874,217	61,52
874,509	61,18
874,801	61,52
875,093	62,35
875,385	62,9
875,677	63,26
875,969	63,79
