Data from zc74051_4_Reflection_00003.txt Node
Date: Thu Mar 12 15:05:16 ART 2020
User: Ana
Spectrometer: USB2E3644
Trigger mode: 4
Integration Time (sec): 5,000000E-2
Scans to average: 10
Electric dark correction enabled: true
Nonlinearity correction enabled: false
Boxcar width: 10
XAxis mode: Wavelengths
Number of Pixels in Spectrum: 2048
>>>>>Begin Spectral Data<<<<<
178,315	104,46
178,696	116,67
179,076	148,26
179,457	167,27
179,838	173,72
180,218	294,95
180,599	-636,11
180,979	63,16
181,36	314,44
181,74	179,29
182,121	144,81
182,501	117,57
182,881	116
183,262	116,31
183,642	115,42
184,022	115,11
184,402	110,99
184,783	106,96
185,163	103,17
185,543	102,76
185,923	101,69
186,303	102,08
186,683	107,21
187,063	112,54
187,443	116,67
187,823	117,41
188,203	117,98
188,583	118,36
188,963	116,39
189,343	116,06
189,723	116,83
190,102	118,13
190,482	117,92
190,862	117,66
191,242	117,96
191,621	119,27
192,001	121,71
192,38	123,14
192,76	124,72
193,14	125,49
193,519	124,96
193,898	124,15
194,278	122,94
194,657	120,48
195,037	119,06
195,416	116,8
195,795	115,8
196,175	116,01
196,554	115,44
196,933	115,27
197,312	115,08
197,692	114,45
198,071	114,55
198,45	115,62
198,829	116,44
199,208	117,1
199,587	117,65
199,966	117,98
200,345	119,28
200,724	120,28
201,103	120,96
201,482	121,83
201,86	122,54
202,239	122,5
202,618	122,62
202,997	123,22
203,375	123,64
203,754	123,79
204,133	124,26
204,511	124,75
204,89	125,25
205,269	125,16
205,647	124,53
206,026	123,08
206,404	121,53
206,782	119,4
207,161	117,84
207,539	116,59
207,918	115,45
208,296	113,97
208,674	113,41
209,052	113,73
209,431	114,04
209,809	114,68
210,187	115,86
210,565	116,83
210,943	117,31
211,321	118,74
211,699	119,83
212,077	120,11
212,455	120,09
212,833	119,55
213,211	118,88
213,589	119,14
213,967	120,55
214,345	121,83
214,722	123,26
215,1	123,85
215,478	124,18
215,855	124,63
216,233	125,12
216,611	124,22
216,988	123,24
217,366	121,9
217,743	120,51
218,121	118,61
218,498	116,75
218,876	114,99
219,253	112,25
219,631	109,25
220,008	107,49
220,385	106,26
220,762	106,36
221,14	106,77
221,517	107,13
221,894	106,44
222,271	105,99
222,648	107,01
223,025	108,28
223,402	109,43
223,78	109,28
224,157	108,11
224,533	108,55
224,91	109,44
225,287	110,61
225,664	112,36
226,041	115,47
226,418	118,95
226,795	120,85
227,171	122,72
227,548	125,16
227,925	126,24
228,301	127,77
228,678	127,62
229,055	127,47
229,431	128,04
229,808	129,06
230,184	129,88
230,561	129,8
230,937	129,59
231,313	129,03
231,69	129,84
232,066	133,59
232,442	136,37
232,819	138,08
233,195	138,8
233,571	138,82
233,947	137,31
234,323	136,33
234,699	137,44
235,075	138,77
235,451	141,23
235,827	144,47
236,203	147,04
236,579	151,22
236,955	155,78
237,331	160,72
237,707	167,6
238,083	176,23
238,459	188,01
238,834	205,73
239,21	229,61
239,586	258,29
239,961	281,4
240,337	299,16
240,713	311
241,088	325,88
241,464	342,08
241,839	363,75
242,215	397,5
242,59	487
242,965	863,13
243,341	-4639,25
243,716	-579,99
244,091	-336,67
244,467	-255,47
244,842	-210,83
245,217	-179,34
245,592	-162,81
245,967	-159,29
246,343	-153,47
246,718	-150,22
247,093	-153,61
247,468	-157,76
247,843	-156,8
248,218	-149,26
248,593	-136,02
248,967	-123,33
249,342	-115,84
249,717	-111,46
250,092	-108,65
250,467	-110,11
250,841	-118,4
251,216	-137,66
251,591	-168,55
251,965	-203,37
252,34	-236,82
252,714	-280,03
253,089	-336,54
253,463	-383,24
253,838	-386,09
254,212	-377,04
254,587	-341,54
254,961	-275,51
255,335	-215,97
255,71	-166,04
256,084	-120,02
256,458	-91,67
256,832	-76,26
257,206	-67,79
257,581	-63,37
257,955	-60,8
258,329	-58,54
258,703	-55,95
259,077	-53,69
259,451	-51,35
259,825	-50,3
260,199	-50,21
260,572	-49,54
260,946	-49,24
261,32	-48,65
261,694	-47,6
262,068	-47,06
262,441	-46,44
262,815	-46,23
263,189	-45,34
263,562	-45,66
263,936	-49,03
264,309	-55,01
264,683	-61,57
265,056	-65,54
265,43	-66,69
265,803	-66,32
266,176	-65,15
266,55	-64,1
266,923	-63,14
267,296	-61,78
267,67	-59,16
268,043	-56,55
268,416	-53,39
268,789	-49,82
269,162	-46,43
269,535	-43,8
269,908	-41,68
270,281	-40,52
270,654	-40,57
271,027	-41,79
271,4	-42,61
271,773	-42,94
272,146	-42,97
272,519	-42,75
272,891	-42,6
273,264	-42,56
273,637	-42,16
274,01	-41,73
274,382	-42,35
274,755	-42,48
275,127	-42,67
275,5	-43,05
275,872	-43,15
276,245	-43,55
276,617	-44,62
276,99	-45,68
277,362	-46,75
277,734	-47,21
278,107	-47,21
278,479	-46,37
278,851	-45,03
279,223	-43,95
279,596	-42,82
279,968	-41,97
280,34	-41,11
280,712	-39,92
281,084	-38,33
281,456	-36,86
281,828	-35,19
282,2	-32,85
282,572	-31,22
282,944	-29,98
283,315	-29,15
283,687	-28,49
284,059	-28,24
284,431	-27,89
284,802	-27,27
285,174	-26,59
285,546	-26,07
285,917	-25,48
286,289	-25,11
286,66	-24,81
287,032	-24,32
287,403	-24,04
287,775	-23,94
288,146	-24,18
288,518	-24,67
288,889	-24,96
289,26	-25,27
289,632	-25,97
290,003	-26,91
290,374	-27,48
290,745	-27,9
291,116	-27,97
291,487	-27,89
291,858	-27,32
292,229	-26,79
292,6	-26,24
292,971	-25,38
293,342	-24,4
293,713	-23,35
294,084	-22,3
294,455	-21,16
294,826	-20,42
295,196	-20,11
295,567	-20,06
295,938	-19,64
296,308	-19,04
296,679	-18,59
297,05	-18,12
297,42	-17,54
297,791	-16,86
298,161	-16,51
298,532	-16,07
298,902	-15,74
299,272	-15,52
299,643	-15,39
300,013	-15,04
300,383	-14,87
300,754	-14,97
301,124	-15,25
301,494	-15,67
301,864	-16,16
302,234	-16,77
302,604	-17,12
302,974	-17,12
303,344	-16,77
303,714	-16,45
304,084	-16,09
304,454	-15,86
304,824	-15,71
305,194	-15,7
305,563	-15,68
305,933	-15,39
306,303	-14,99
306,673	-14,46
307,042	-13,81
307,412	-13,1
307,781	-12,45
308,151	-11,96
308,521	-11,59
308,89	-11,27
309,259	-11,16
309,629	-11,01
309,998	-10,86
310,368	-10,88
310,737	-10,84
311,106	-10,78
311,475	-10,72
311,845	-10,81
312,214	-10,76
312,583	-10,66
312,952	-10,58
313,321	-10,44
313,69	-10,15
314,059	-10,07
314,428	-10,11
314,797	-10,37
315,166	-10,85
315,535	-11,33
315,904	-11,78
316,272	-12,1
316,641	-12,31
317,01	-12,19
317,379	-12,01
317,747	-11,7
318,116	-11,18
318,484	-10,77
318,853	-10,57
319,221	-10,44
319,59	-10,32
319,958	-10,13
320,327	-9,97
320,695	-9,73
321,063	-9,48
321,432	-9,24
321,8	-8,83
322,168	-8,5
322,536	-8,3
322,905	-7,84
323,273	-7,36
323,641	-6,91
324,009	-6,55
324,377	-6,25
324,745	-5,91
325,113	-5,55
325,481	-5,29
325,849	-5,11
326,216	-4,86
326,584	-4,56
326,952	-4,36
327,32	-4,08
327,687	-3,86
328,055	-3,59
328,423	-3,36
328,79	-3,23
329,158	-3,23
329,525	-3,21
329,893	-3,07
330,26	-2,8
330,628	-2,68
330,995	-2,64
331,362	-2,67
331,73	-2,62
332,097	-2,44
332,464	-2,32
332,831	-2,14
333,199	-1,95
333,566	-1,78
333,933	-1,6
334,3	-1,43
334,667	-1,27
335,034	-1,1
335,401	-0,98
335,768	-0,83
336,135	-0,61
336,502	-0,41
336,868	-0,19
337,235	-0,04
337,602	0,08
337,969	0,29
338,335	0,48
338,702	0,73
339,069	0,93
339,435	1,06
339,802	1,17
340,168	1,26
340,535	1,38
340,901	1,42
341,267	1,49
341,634	1,53
342	1,61
342,366	1,81
342,733	1,93
343,099	2,07
343,465	2,08
343,831	2,07
344,197	2,11
344,563	2,14
344,929	2,18
345,295	2,29
345,661	2,4
346,027	2,51
346,393	2,59
346,759	2,74
347,125	2,91
347,491	3,06
347,856	3,21
348,222	3,29
348,588	3,53
348,953	3,71
349,319	3,77
349,684	3,87
350,05	3,89
350,415	3,99
350,781	4,07
351,146	4,28
351,512	4,45
351,877	4,57
352,242	4,67
352,608	4,77
352,973	4,89
353,338	4,96
353,703	5,07
354,068	5,15
354,433	5,2
354,798	5,26
355,164	5,35
355,528	5,41
355,893	5,41
356,258	5,37
356,623	5,41
356,988	5,59
357,353	5,72
357,718	5,88
358,082	5,99
358,447	6,12
358,812	6,27
359,176	6,43
359,541	6,6
359,905	6,75
360,27	6,86
360,634	6,92
360,999	7,04
361,363	7,12
361,728	7,22
362,092	7,28
362,456	7,34
362,821	7,42
363,185	7,5
363,549	7,61
363,913	7,69
364,277	7,76
364,641	7,77
365,005	7,84
365,369	7,93
365,733	8,05
366,097	8,16
366,461	8,18
366,825	8,19
367,189	8,18
367,553	8,24
367,916	8,41
368,28	8,54
368,644	8,61
369,007	8,71
369,371	8,87
369,734	9,04
370,098	9,19
370,461	9,32
370,825	9,44
371,188	9,58
371,552	9,72
371,915	9,82
372,278	9,98
372,642	10,09
373,005	10,22
373,368	10,35
373,731	10,47
374,094	10,6
374,457	10,74
374,82	10,92
375,183	11,05
375,546	11,12
375,909	11,22
376,272	11,34
376,635	11,48
376,998	11,54
377,361	11,61
377,723	11,7
378,086	11,79
378,449	11,88
378,811	11,95
379,174	12,06
379,537	12,18
379,899	12,29
380,262	12,37
380,624	12,43
380,987	12,52
381,349	12,61
381,711	12,69
382,074	12,79
382,436	12,88
382,798	12,99
383,16	13,05
383,522	13,11
383,884	13,16
384,247	13,23
384,609	13,33
384,971	13,39
385,333	13,38
385,695	13,37
386,056	13,38
386,418	13,41
386,78	13,44
387,142	13,46
387,504	13,46
387,865	13,54
388,227	13,61
388,589	13,63
388,95	13,68
389,312	13,73
389,673	13,78
390,035	13,75
390,396	13,76
390,758	13,79
391,119	13,82
391,48	13,86
391,842	13,89
392,203	13,88
392,564	13,94
392,925	14,02
393,286	14,08
393,648	14,14
394,009	14,21
394,37	14,25
394,731	14,33
395,092	14,39
395,452	14,39
395,813	14,42
396,174	14,41
396,535	14,39
396,896	14,37
397,257	14,39
397,617	14,46
397,978	14,5
398,338	14,55
398,699	14,6
399,06	14,65
399,42	14,61
399,781	14,63
400,141	14,64
400,501	14,67
400,862	14,74
401,222	14,74
401,582	14,73
401,943	14,73
402,303	14,69
402,663	14,72
403,023	14,74
403,383	14,76
403,743	14,83
404,103	14,86
404,463	14,91
404,823	14,94
405,183	14,97
405,543	14,99
405,903	14,99
406,262	15
406,622	14,98
406,982	15,05
407,342	15,11
407,701	15,12
408,061	15,12
408,42	15,11
408,78	15,14
409,139	15,16
409,499	15,19
409,858	15,22
410,217	15,25
410,577	15,27
410,936	15,24
411,295	15,19
411,655	15,19
412,014	15,19
412,373	15,17
412,732	15,15
413,091	15,12
413,45	15,1
413,809	15,06
414,168	15,05
414,527	15,01
414,886	14,95
415,245	14,93
415,603	14,91
415,962	14,86
416,321	14,85
416,679	14,84
417,038	14,79
417,397	14,79
417,755	14,75
418,114	14,73
418,472	14,71
418,831	14,71
419,189	14,7
419,547	14,68
419,906	14,66
420,264	14,65
420,622	14,65
420,981	14,64
421,339	14,64
421,697	14,64
422,055	14,66
422,413	14,7
422,771	14,7
423,129	14,72
423,487	14,77
423,845	14,77
424,203	14,8
424,56	14,84
424,918	14,86
425,276	14,9
425,634	14,93
425,991	14,97
426,349	15
426,707	15,06
427,064	15,09
427,422	15,13
427,779	15,19
428,137	15,23
428,494	15,31
428,851	15,39
429,209	15,41
429,566	15,41
429,923	15,38
430,28	15,39
430,637	15,4
430,995	15,37
431,352	15,38
431,709	15,38
432,066	15,39
432,423	15,38
432,78	15,37
433,137	15,37
433,493	15,38
433,85	15,44
434,207	15,39
434,564	15,4
434,92	15,42
435,277	15,42
435,634	15,42
435,99	15,37
436,347	15,35
436,703	15,36
437,06	15,37
437,416	15,38
437,773	15,38
438,129	15,36
438,485	15,37
438,841	15,38
439,198	15,38
439,554	15,38
439,91	15,4
440,266	15,42
440,622	15,43
440,978	15,43
441,334	15,4
441,69	15,44
442,046	15,42
442,402	15,43
442,758	15,42
443,113	15,39
443,469	15,38
443,825	15,39
444,181	15,4
444,536	15,41
444,892	15,42
445,247	15,46
445,603	15,48
445,958	15,5
446,314	15,52
446,669	15,53
447,025	15,57
447,38	15,57
447,735	15,57
448,09	15,59
448,446	15,61
448,801	15,63
449,156	15,63
449,511	15,67
449,866	15,71
450,221	15,75
450,576	15,82
450,931	15,91
451,286	15,93
451,641	15,99
451,995	16,02
452,35	16,05
452,705	16,06
453,06	16,08
453,414	16,12
453,769	16,14
454,123	16,14
454,478	16,15
454,832	16,17
455,187	16,14
455,541	16,12
455,896	16,08
456,25	16,05
456,604	16,01
456,958	15,98
457,313	15,96
457,667	15,93
458,021	15,92
458,375	15,91
458,729	15,95
459,083	15,95
459,437	15,96
459,791	15,96
460,145	15,96
460,499	15,94
460,852	15,91
461,206	15,91
461,56	15,91
461,914	15,9
462,267	15,9
462,621	15,94
462,974	15,95
463,328	15,97
463,681	16,01
464,035	16,05
464,388	16,1
464,742	16,11
465,095	16,13
465,448	16,16
465,801	16,15
466,155	16,12
466,508	16,11
466,861	16,09
467,214	16,07
467,567	16,06
467,92	16,08
468,273	16,09
468,626	16,07
468,979	16,07
469,332	16,07
469,684	16,05
470,037	16,05
470,39	16,04
470,743	16,07
471,095	16,06
471,448	16,09
471,8	16,07
472,153	16,1
472,505	16,13
472,858	16,14
473,21	16,18
473,562	16,22
473,915	16,23
474,267	16,27
474,619	16,29
474,971	16,29
475,324	16,28
475,676	16,3
476,028	16,32
476,38	16,33
476,732	16,33
477,084	16,35
477,436	16,36
477,787	16,37
478,139	16,35
478,491	16,35
478,843	16,32
479,195	16,32
479,546	16,27
479,898	16,25
480,249	16,22
480,601	16,2
480,952	16,17
481,304	16,15
481,655	16,11
482,007	16,08
482,358	16,07
482,709	16,06
483,061	16,04
483,412	16,01
483,763	16,02
484,114	16,02
484,465	16,02
484,816	16,01
485,167	15,99
485,518	15,99
485,869	15,99
486,22	15,99
486,571	15,99
486,922	16,01
487,272	16
487,623	15,99
487,974	15,98
488,324	15,98
488,675	15,98
489,025	16
489,376	16,02
489,726	16,04
490,077	16,07
490,427	16,09
490,778	16,13
491,128	16,13
491,478	16,14
491,828	16,15
492,179	16,19
492,529	16,23
492,879	16,24
493,229	16,26
493,579	16,28
493,929	16,28
494,279	16,28
494,629	16,29
494,979	16,32
495,328	16,36
495,678	16,38
496,028	16,43
496,378	16,46
496,727	16,49
497,077	16,51
497,426	16,53
497,776	16,54
498,125	16,52
498,475	16,54
498,824	16,55
499,174	16,57
499,523	16,56
499,872	16,59
500,221	16,64
500,571	16,65
500,92	16,66
501,269	16,68
501,618	16,71
501,967	16,72
502,316	16,73
502,665	16,73
503,014	16,77
503,363	16,78
503,711	16,79
504,06	16,79
504,409	16,79
504,758	16,77
505,106	16,79
505,455	16,81
505,803	16,82
506,152	16,8
506,5	16,8
506,849	16,81
507,197	16,79
507,546	16,76
507,894	16,76
508,242	16,78
508,59	16,76
508,939	16,74
509,287	16,74
509,635	16,73
509,983	16,73
510,331	16,72
510,679	16,72
511,027	16,72
511,375	16,71
511,723	16,74
512,07	16,75
512,418	16,76
512,766	16,77
513,114	16,77
513,461	16,79
513,809	16,79
514,156	16,78
514,504	16,79
514,851	16,79
515,199	16,78
515,546	16,76
515,893	16,79
516,241	16,79
516,588	16,8
516,935	16,8
517,282	16,8
517,63	16,8
517,977	16,8
518,324	16,82
518,671	16,83
519,018	16,82
519,365	16,81
519,711	16,81
520,058	16,82
520,405	16,83
520,752	16,82
521,099	16,82
521,445	16,84
521,792	16,84
522,138	16,81
522,485	16,82
522,832	16,82
523,178	16,8
523,524	16,81
523,871	16,83
524,217	16,86
524,563	16,84
524,91	16,84
525,256	16,86
525,602	16,85
525,948	16,81
526,294	16,79
526,64	16,77
526,986	16,75
527,332	16,72
527,678	16,71
528,024	16,72
528,37	16,73
528,716	16,72
529,061	16,71
529,407	16,72
529,753	16,71
530,098	16,71
530,444	16,73
530,789	16,72
531,135	16,71
531,48	16,71
531,826	16,7
532,171	16,68
532,516	16,66
532,862	16,66
533,207	16,68
533,552	16,69
533,897	16,71
534,242	16,73
534,587	16,74
534,932	16,76
535,277	16,76
535,622	16,74
535,967	16,76
536,312	16,78
536,657	16,81
537,001	16,82
537,346	16,85
537,691	16,84
538,035	16,84
538,38	16,84
538,724	16,84
539,069	16,86
539,413	16,88
539,758	16,87
540,102	16,86
540,446	16,84
540,791	16,84
541,135	16,84
541,479	16,84
541,823	16,85
542,167	16,84
542,512	16,87
542,856	16,86
543,2	16,87
543,543	16,86
543,887	16,85
544,231	16,84
544,575	16,84
544,919	16,84
545,262	16,86
545,606	16,86
545,95	16,85
546,293	16,84
546,637	16,85
546,98	16,87
547,324	16,89
547,667	16,94
548,011	16,96
548,354	16,99
548,697	17
549,04	17
549,384	17,01
549,727	16,99
550,07	17
550,413	16,99
550,756	16,98
551,099	16,97
551,442	16,99
551,785	17
552,128	17
552,47	17
552,813	17,03
553,156	17,05
553,499	17,07
553,841	17,07
554,184	17,1
554,526	17,08
554,869	17,01
555,211	16,98
555,554	16,94
555,896	16,89
556,238	16,88
556,581	16,84
556,923	16,78
557,265	16,79
557,607	16,77
557,949	16,78
558,291	16,76
558,633	16,74
558,975	16,71
559,317	16,68
559,659	16,66
560,001	16,65
560,343	16,61
560,685	16,57
561,026	16,54
561,368	16,5
561,71	16,47
562,051	16,46
562,393	16,47
562,734	16,47
563,076	16,52
563,417	16,5
563,759	16,5
564,1	16,54
564,441	16,52
564,782	16,5
565,124	16,46
565,465	16,46
565,806	16,46
566,147	16,45
566,488	16,44
566,829	16,44
567,17	16,42
567,511	16,43
567,851	16,44
568,192	16,44
568,533	16,43
568,874	16,44
569,214	16,48
569,555	16,45
569,895	16,45
570,236	16,41
570,576	16,38
570,917	16,36
571,257	16,32
571,598	16,3
571,938	16,29
572,278	16,3
572,618	16,29
572,959	16,28
573,299	16,27
573,639	16,25
573,979	16,21
574,319	16,18
574,659	16,15
574,999	16,1
575,339	16,08
575,678	16,05
576,018	16,02
576,358	15,96
576,698	15,95
577,037	15,93
577,377	15,93
577,716	15,9
578,056	15,88
578,395	15,87
578,735	15,85
579,074	15,81
579,413	15,79
579,753	15,75
580,092	15,71
580,431	15,68
580,77	15,69
581,109	15,68
581,448	15,68
581,787	15,67
582,126	15,69
582,465	15,7
582,804	15,68
583,143	15,66
583,482	15,64
583,82	15,62
584,159	15,6
584,498	15,59
584,836	15,58
585,175	15,58
585,514	15,58
585,852	15,58
586,19	15,61
586,529	15,59
586,867	15,58
587,205	15,61
587,544	15,62
587,882	15,6
588,22	15,59
588,558	15,57
588,896	15,59
589,234	15,56
589,572	15,53
589,91	15,51
590,248	15,48
590,586	15,48
590,924	15,48
591,262	15,49
591,599	15,47
591,937	15,49
592,275	15,5
592,612	15,53
592,95	15,54
593,287	15,53
593,625	15,54
593,962	15,57
594,299	15,59
594,637	15,58
594,974	15,59
595,311	15,61
595,648	15,61
595,985	15,59
596,322	15,59
596,659	15,62
596,996	15,65
597,333	15,65
597,67	15,65
598,007	15,63
598,344	15,61
598,681	15,64
599,017	15,62
599,354	15,63
599,691	15,62
600,027	15,64
600,364	15,63
600,7	15,66
601,037	15,68
601,373	15,66
601,71	15,71
602,046	15,73
602,382	15,69
602,718	15,72
603,054	15,72
603,391	15,74
603,727	15,7
604,063	15,69
604,399	15,7
604,735	15,72
605,071	15,74
605,406	15,76
605,742	15,78
606,078	15,8
606,414	15,82
606,749	15,82
607,085	15,82
607,421	15,84
607,756	15,82
608,092	15,78
608,427	15,75
608,762	15,69
609,098	15,67
609,433	15,68
609,768	15,66
610,104	15,68
610,439	15,67
610,774	15,69
611,109	15,67
611,444	15,67
611,779	15,64
612,114	15,64
612,449	15,63
612,784	15,55
613,118	15,52
613,453	15,44
613,788	15,39
614,123	15,31
614,457	15,26
614,792	15,22
615,126	15,25
615,461	15,21
615,795	15,23
616,13	15,21
616,464	15,21
616,798	15,18
617,132	15,13
617,467	15,1
617,801	15,08
618,135	15,09
618,469	15,08
618,803	15,1
619,137	15,08
619,471	15,06
619,805	15,08
620,139	15,09
620,472	15,13
620,806	15,14
621,14	15,15
621,473	15,12
621,807	15,08
622,141	15,04
622,474	15,06
622,808	15,1
623,141	15,13
623,474	15,14
623,808	15,17
624,141	15,27
624,474	15,32
624,807	15,34
625,141	15,36
625,474	15,39
625,807	15,4
626,14	15,42
626,473	15,45
626,806	15,46
627,138	15,44
627,471	15,43
627,804	15,42
628,137	15,45
628,469	15,49
628,802	15,52
629,135	15,52
629,467	15,51
629,8	15,49
630,132	15,45
630,465	15,45
630,797	15,44
631,129	15,38
631,461	15,36
631,794	15,38
632,126	15,35
632,458	15,34
632,79	15,33
633,122	15,31
633,454	15,28
633,786	15,23
634,118	15,25
634,45	15,26
634,781	15,27
635,113	15,26
635,445	15,25
635,777	15,25
636,108	15,23
636,44	15,23
636,771	15,23
637,103	15,21
637,434	15,17
637,765	15,12
638,097	15,1
638,428	15,06
638,759	15,03
639,09	15,02
639,422	14,98
639,753	14,97
640,084	15
640,415	15
640,746	15,02
641,077	15,04
641,407	15,05
641,738	15,06
642,069	15,05
642,4	15,03
642,73	15,04
643,061	15,07
643,392	15,07
643,722	15,11
644,053	15,17
644,383	15,2
644,713	15,26
645,044	15,28
645,374	15,31
645,704	15,34
646,034	15,36
646,365	15,42
646,695	15,45
647,025	15,46
647,355	15,47
647,685	15,47
648,015	15,46
648,344	15,44
648,674	15,44
649,004	15,42
649,334	15,44
649,663	15,46
649,993	15,46
650,323	15,5
650,652	15,46
650,982	15,43
651,311	15,42
651,64	15,39
651,97	15,38
652,299	15,34
652,628	15,35
652,958	15,33
653,287	15,31
653,616	15,27
653,945	15,23
654,274	15,25
654,603	15,26
654,932	15,26
655,261	15,28
655,589	15,3
655,918	15,37
656,247	15,4
656,576	15,43
656,904	15,46
657,233	15,46
657,561	15,5
657,89	15,53
658,218	15,56
658,547	15,57
658,875	15,6
659,203	15,64
659,532	15,63
659,86	15,63
660,188	15,61
660,516	15,63
660,844	15,65
661,172	15,64
661,5	15,65
661,828	15,68
662,156	15,7
662,484	15,68
662,811	15,66
663,139	15,67
663,467	15,63
663,794	15,6
664,122	15,58
664,45	15,54
664,777	15,52
665,104	15,52
665,432	15,51
665,759	15,54
666,086	15,54
666,414	15,52
666,741	15,5
667,068	15,5
667,395	15,48
667,722	15,46
668,049	15,43
668,376	15,41
668,703	15,4
669,03	15,41
669,357	15,41
669,683	15,39
670,01	15,38
670,337	15,36
670,663	15,32
670,99	15,27
671,317	15,31
671,643	15,32
671,969	15,23
672,296	15,2
672,622	15,14
672,948	15,13
673,275	15,14
673,601	15,13
673,927	15,14
674,253	15,15
674,579	15,16
674,905	15,16
675,231	15,16
675,557	15,1
675,883	15,01
676,209	15
676,534	15,02
676,86	15,09
677,186	15,15
677,511	15,26
677,837	15,33
678,162	15,35
678,488	15,41
678,813	15,54
679,139	15,59
679,464	15,59
679,789	15,58
680,114	15,59
680,44	15,6
680,765	15,62
681,09	15,63
681,415	15,59
681,74	15,61
682,065	15,65
682,39	15,7
682,714	15,75
683,039	15,76
683,364	15,79
683,689	15,73
684,013	15,69
684,338	15,63
684,662	15,61
684,987	15,57
685,311	15,52
685,636	15,45
685,96	15,39
686,284	15,37
686,608	15,32
686,933	15,3
687,257	15,33
687,581	15,35
687,905	15,36
688,229	15,38
688,553	15,34
688,877	15,33
689,201	15,31
689,524	15,29
689,848	15,27
690,172	15,26
690,496	15,24
690,819	15,22
691,143	15,21
691,466	15,23
691,79	15,24
692,113	15,24
692,436	15,27
692,76	15,31
693,083	15,33
693,406	15,31
693,729	15,29
694,053	15,26
694,376	15,27
694,699	15,26
695,022	15,3
695,344	15,34
695,667	15,41
695,99	15,52
696,313	15,58
696,636	15,65
696,958	15,68
697,281	15,74
697,604	15,75
697,926	15,74
698,249	15,74
698,571	15,72
698,893	15,68
699,216	15,62
699,538	15,59
699,86	15,58
700,182	15,64
700,504	15,66
700,827	15,63
701,149	15,58
701,471	15,61
701,793	15,61
702,114	15,59
702,436	15,49
702,758	15,35
703,08	15,26
703,401	15,1
703,723	15,01
704,045	14,97
704,366	14,97
704,688	14,97
705,009	14,9
705,331	14,92
705,652	14,97
705,973	15,01
706,294	15,05
706,616	15,06
706,937	15,07
707,258	15
707,579	14,96
707,9	14,98
708,221	14,95
708,542	14,96
708,863	14,99
709,183	15,04
709,504	15,06
709,825	15,08
710,145	15,18
710,466	15,22
710,787	15,26
711,107	15,26
711,427	15,21
711,748	15,27
712,068	15,33
712,388	15,37
712,709	15,47
713,029	15,52
713,349	15,58
713,669	15,57
713,989	15,66
714,309	15,81
714,629	15,89
714,949	15,94
715,269	15,95
715,589	15,98
715,908	15,93
716,228	15,91
716,548	15,92
716,867	15,83
717,187	15,77
717,506	15,71
717,826	15,7
718,145	15,73
718,465	15,79
718,784	15,79
719,103	15,77
719,422	15,71
719,741	15,73
720,061	15,75
720,38	15,86
720,699	15,94
721,018	15,95
721,336	15,94
721,655	16,01
721,974	16,09
722,293	16,2
722,612	16,36
722,93	16,54
723,249	16,7
723,567	16,9
723,886	17,04
724,204	17,17
724,523	17,29
724,841	17,46
725,159	17,51
725,477	17,57
725,796	17,64
726,114	17,8
726,432	17,92
726,75	18,02
727,068	18,06
727,386	18,18
727,704	18,32
728,022	18,53
728,339	18,63
728,657	18,73
728,975	18,8
729,292	18,94
729,61	18,99
729,928	19,15
730,245	19,35
730,562	19,48
730,88	19,57
731,197	19,74
731,514	19,86
731,832	20
732,149	20,18
732,466	20,33
732,783	20,34
733,1	20,42
733,417	20,55
733,734	20,69
734,051	20,75
734,368	20,84
734,684	20,86
735,001	20,91
735,318	20,96
735,634	20,99
735,951	21,04
736,268	21,13
736,584	21,16
736,9	21,1
737,217	21,19
737,533	21,37
737,849	21,37
738,166	21,37
738,482	21,42
738,798	21,45
739,114	21,59
739,43	21,76
739,746	21,77
740,062	21,81
740,378	21,87
740,693	22
741,009	22,14
741,325	22,28
741,641	22,31
741,956	22,42
742,272	22,57
742,587	22,55
742,903	22,68
743,218	22,78
743,533	23
743,849	23,09
744,164	23,03
744,479	23,13
744,794	23,27
745,109	23,37
745,424	23,49
745,739	23,65
746,054	23,78
746,369	23,87
746,684	24,05
746,999	24,13
747,313	24,1
747,628	24,07
747,943	23,97
748,257	24,16
748,572	24,29
748,886	24,41
749,201	24,63
749,515	24,68
749,829	24,69
750,144	24,69
750,458	24,71
750,772	24,79
751,086	24,83
751,4	24,92
751,714	24,92
752,028	24,89
752,342	24,85
752,656	24,84
752,97	24,99
753,284	25,07
753,597	25,11
753,911	25,13
754,225	25,14
754,538	25,25
754,852	25,22
755,165	25,19
755,478	25,24
755,792	25,22
756,105	25,25
756,418	25,3
756,731	25,3
757,045	25,39
757,358	25,56
757,671	25,73
757,984	25,78
758,297	25,75
758,609	25,73
758,922	25,72
759,235	25,68
759,548	25,63
759,86	25,38
760,173	25,21
760,486	25,27
760,798	25,22
761,111	25,11
761,423	24,98
761,735	25,01
762,048	25,01
762,36	25,04
762,672	25,11
762,984	25,16
763,296	25,24
763,608	25,31
763,92	25,34
764,232	25,35
764,544	25,45
764,856	25,66
765,168	25,83
765,48	25,99
765,791	26,13
766,103	26,25
766,414	26,57
766,726	26,94
767,037	27,16
767,349	27,52
767,66	27,98
767,972	28,55
768,283	28,92
768,594	29,21
768,905	29,51
769,216	29,83
769,527	30,21
769,838	30,45
770,149	30,69
770,46	30,85
770,771	31,02
771,082	31,15
771,393	31,29
771,703	31,38
772,014	31,49
772,324	31,61
772,635	31,79
772,945	32,01
773,256	32,07
773,566	32,25
773,877	32,28
774,187	32,25
774,497	32,26
774,807	32,29
775,117	32,22
775,427	32,21
775,737	32,25
776,047	32,33
776,357	32,47
776,667	32,52
776,977	32,63
777,287	32,84
777,596	32,92
777,906	32,94
778,216	33,01
778,525	33,14
778,835	33,39
779,144	34,12
779,453	34,46
779,763	34,71
780,072	34,74
780,381	35,05
780,69	35,2
781	35,39
781,309	35,52
781,618	35,74
781,927	36,01
782,235	36,24
782,544	36,38
782,853	36,64
783,162	36,83
783,471	36,93
783,779	36,91
784,088	36,99
784,396	37,12
784,705	37,4
785,013	37,47
785,322	37,37
785,63	36,68
785,938	36,17
786,246	36,01
786,554	36,12
786,863	36,07
787,171	36,11
787,479	36
787,787	36,08
788,094	36,25
788,402	36,21
788,71	36,19
789,018	36,17
789,326	35,99
789,633	35,83
789,941	35,94
790,248	35,89
790,556	35,87
790,863	35,88
791,171	35,78
791,478	35,78
791,785	35,83
792,092	35,81
792,399	35,96
792,707	35,96
793,014	35,82
793,321	35,81
793,628	36,09
793,934	36,28
794,241	36,19
794,548	35,94
794,855	35,82
795,161	35,77
795,468	35,66
795,775	35,75
796,081	35,88
796,388	35,87
796,694	36,06
797	36,08
797,307	36,02
797,613	36
797,919	36,18
798,225	36,33
798,531	36,47
798,837	36,61
799,143	36,76
799,449	36,91
799,755	37,03
800,061	36,93
800,367	36,94
800,672	37,11
800,978	37,61
801,284	38,13
801,589	38,07
801,895	38,06
802,2	38,15
802,506	38,33
802,811	38,38
803,116	38,36
803,421	38,47
803,727	38,7
804,032	38,91
804,337	38,94
804,642	39,02
804,947	39,04
805,252	39,13
805,556	39,38
805,861	39,45
806,166	39,34
806,471	39,4
806,775	39,53
807,08	39,39
807,384	39,28
807,689	39,22
807,993	39,71
808,298	39,96
808,602	39,93
808,906	39,91
809,211	40,02
809,515	40,16
809,819	40,3
810,123	40,33
810,427	40,27
810,731	40,22
811,035	40,23
811,338	40,16
811,642	40,02
811,946	40
812,25	40,32
812,553	40,48
812,857	40,46
813,16	40,32
813,464	40,32
813,767	40,1
814,07	39,96
814,374	39,57
814,677	39,46
814,98	39,45
815,283	39,24
815,586	39,04
815,889	38,81
816,192	38,76
816,495	38,54
816,798	38,54
817,101	38,38
817,404	38,3
817,706	38,22
818,009	37,84
818,312	37
818,614	35,88
818,917	34,41
819,219	32,31
819,521	30,61
819,824	29,23
820,126	28,22
820,428	27,55
820,73	27,2
821,032	26,75
821,334	26,41
821,636	26,22
821,938	26,07
822,24	26,04
822,542	25,98
822,844	26
823,145	25,93
823,447	25,84
823,749	25,71
824,05	25,62
824,352	25,56
824,653	25,58
824,955	25,59
825,256	25,73
825,557	26,03
825,858	26,38
826,16	26,8
826,461	27,24
826,762	27,65
827,063	28
827,364	28,54
827,665	29,07
827,965	29,59
828,266	30,06
828,567	30,39
828,868	30,71
829,168	30,9
829,469	31,07
829,769	31,23
830,07	31,52
830,37	31,9
830,67	32,25
830,971	32,48
831,271	32,82
831,571	32,93
831,871	33,16
832,171	33,19
832,471	33,26
832,771	33,34
833,071	33,29
833,371	33,26
833,671	33,49
833,971	33,6
834,27	33,62
834,57	33,88
834,869	34,14
835,169	34,34
835,468	34,44
835,768	34,77
836,067	35,1
836,367	35,47
836,666	35,81
836,965	36,43
837,264	37,24
837,563	37,88
837,862	38,58
838,161	39,19
838,46	39,81
838,759	40,27
839,058	40,87
839,356	41,76
839,655	42,41
839,954	42,8
840,252	43,29
840,551	43,89
840,849	44,24
841,148	44,64
841,446	44,78
841,744	44,91
842,043	44,7
842,341	44,56
842,639	44,55
842,937	44,49
843,235	44,64
843,533	44,67
843,831	45,13
844,129	46,13
844,427	47,45
844,724	48,72
845,022	50,08
845,32	51,38
845,617	52,31
845,915	53,45
846,212	53,8
846,51	54,13
846,807	54,31
847,104	54,89
847,402	55,13
847,699	55,79
847,996	56,49
848,293	57,41
848,59	58,61
848,887	59,04
849,184	59,83
849,481	60,21
849,778	60,65
850,074	61,28
850,371	61,44
850,668	61,23
850,964	61,75
851,261	62,24
851,557	62,3
851,854	62,18
852,15	62,09
852,446	62,63
852,743	63,13
853,039	63,95
853,335	63,82
853,631	63,42
853,927	63,25
854,223	63,08
854,519	63,63
854,815	64,32
855,111	64,18
855,406	63,83
855,702	64,17
855,998	64,04
856,293	63,95
856,589	64,05
856,884	64,11
857,18	64,4
857,475	65,14
857,77	65,64
858,066	65,93
858,361	65,88
858,656	65,65
858,951	66,18
859,246	66,36
859,541	66,34
859,836	66,53
860,131	66,08
860,426	65,51
860,72	64,69
861,015	63,78
861,31	63,98
861,604	64,53
861,899	64,57
862,193	64,68
862,487	64,45
862,782	63,89
863,076	63,65
863,37	62,67
863,664	61,44
863,959	60,91
864,253	60,88
864,547	61,1
864,841	61,45
865,135	61,74
865,428	61,41
865,722	61,63
866,016	61,65
866,31	62,3
866,603	62,89
866,897	63,14
867,19	62,75
867,484	62,08
867,777	61,15
868,07	60,8
868,364	60,8
868,657	60,45
868,95	59,95
869,243	59,48
869,536	60,15
869,829	60,69
870,122	60,43
870,415	60,36
870,708	60,37
871	60,08
871,293	59,6
871,586	59,09
871,878	58,48
872,171	59,16
872,463	59,29
872,756	59,16
873,048	58,15
873,341	58,34
873,633	58,91
873,925	59,38
874,217	58,93
874,509	58,47
874,801	58,88
875,093	59,91
875,385	60,88
875,677	60,31
875,969	60,01
