Data from zc74019_2_Reflection_00004.txt Node
Date: Thu Mar 12 14:41:48 ART 2020
User: Ana
Spectrometer: USB2E3644
Trigger mode: 4
Integration Time (sec): 5,000000E-2
Scans to average: 10
Electric dark correction enabled: true
Nonlinearity correction enabled: false
Boxcar width: 10
XAxis mode: Wavelengths
Number of Pixels in Spectrum: 2048
>>>>>Begin Spectral Data<<<<<
178,315	85,28
178,696	71,62
179,076	57
179,457	46,11
179,838	41,46
180,218	39,68
180,599	13,33
180,979	89,66
181,36	213,33
181,74	173,81
182,121	161,54
182,501	143,4
182,881	136,99
183,262	125,24
183,642	124,24
184,022	127,67
184,402	126,7
184,783	123,47
185,163	121,49
185,543	123,17
185,923	129,28
186,303	135,27
186,683	136,81
187,063	141,08
187,443	144,74
187,823	152,01
188,203	160,4
188,583	167,99
188,963	169,75
189,343	165,8
189,723	161,25
190,102	158,59
190,482	155,04
190,862	153,08
191,242	154,48
191,621	153,86
192,001	149,47
192,38	147,46
192,76	143,24
193,14	139,82
193,519	138,37
193,898	137,43
194,278	134,75
194,657	131,27
195,037	128,08
195,416	125,82
195,795	125,29
196,175	126,38
196,554	125,63
196,933	124,21
197,312	125,24
197,692	127,43
198,071	128,76
198,45	129,95
198,829	131,3
199,208	130,81
199,587	129,75
199,966	128,52
200,345	128,48
200,724	131,48
201,103	134,26
201,482	135,09
201,86	133,42
202,239	131,9
202,618	131,94
202,997	131,48
203,375	131,3
203,754	131,22
204,133	129,77
204,511	127,48
204,89	127,6
205,269	127,43
205,647	126,71
206,026	127,42
206,404	128,88
206,782	128,55
207,161	128,54
207,539	129,47
207,918	131,12
208,296	131,11
208,674	129,7
209,052	129,39
209,431	131,09
209,809	134,08
210,187	137,16
210,565	138,18
210,943	139,41
211,321	140,18
211,699	139,1
212,077	136,84
212,455	137,84
212,833	138,81
213,211	137,01
213,589	136,87
213,967	134,98
214,345	131,53
214,722	127,72
215,1	126,97
215,478	126,74
215,855	127,41
216,233	128,39
216,611	127,75
216,988	125,08
217,366	121,41
217,743	121,63
218,121	122,19
218,498	122,43
218,876	120,8
219,253	120,56
219,631	121,79
220,008	123,17
220,385	124,23
220,762	124,43
221,14	127,38
221,517	129,06
221,894	130,74
222,271	134,1
222,648	139,43
223,025	142,14
223,402	142,33
223,78	142,08
224,157	144,52
224,533	149,48
224,91	159,38
225,287	168,16
225,664	171,77
226,041	176,35
226,418	180,94
226,795	186,5
227,171	193,95
227,548	197,84
227,925	201,45
228,301	204,91
228,678	206,37
229,055	203,14
229,431	204,44
229,808	207,63
230,184	208,25
230,561	212,33
230,937	217,23
231,313	225,66
231,69	228,7
232,066	226,61
232,442	217,86
232,819	209,35
233,195	203,71
233,571	204,39
233,947	200
234,323	200,24
234,699	201,46
235,075	200,24
235,451	204,71
235,827	207,61
236,203	216,93
236,579	230,99
236,955	253,52
237,331	276,97
237,707	317,29
238,083	393,49
238,459	523,17
238,834	945,16
239,21	5906,67
239,586	-1361,54
239,961	-791,15
240,337	-568,35
240,713	-491,26
241,088	-456,06
241,464	-425,35
241,839	-389,83
242,215	-329,12
242,59	-264,01
242,965	-187,09
243,341	-132,44
243,716	-99,3
244,091	-83,03
244,467	-73,96
244,842	-66,73
245,217	-61,39
245,592	-58,68
245,967	-58,51
246,343	-57,82
246,718	-57,12
247,093	-57,73
247,468	-58,31
247,843	-56,97
248,218	-54,19
248,593	-49,89
248,967	-45,99
249,342	-44,35
249,717	-43,64
250,092	-42,89
250,467	-42,78
250,841	-45,43
251,216	-50,23
251,591	-57,25
251,965	-63,01
252,34	-66,51
252,714	-72,04
253,089	-76,41
253,463	-79,51
253,838	-78,31
254,212	-76,3
254,587	-74,12
254,961	-68,56
255,335	-61,08
255,71	-53,31
256,084	-44,34
256,458	-37,92
256,832	-33,54
257,206	-30,85
257,581	-29,14
257,955	-28,1
258,329	-27,15
258,703	-26,03
259,077	-25,13
259,451	-24,24
259,825	-23,94
260,199	-24,54
260,572	-24,3
260,946	-24,02
261,32	-23,37
261,694	-22,47
262,068	-21,87
262,441	-21,62
262,815	-21,65
263,189	-21,23
263,562	-21,21
263,936	-22,61
264,309	-24,77
264,683	-27,22
265,056	-28,26
265,43	-28,69
265,803	-28,66
266,176	-28,08
266,55	-27,53
266,923	-27,19
267,296	-26,63
267,67	-25,65
268,043	-24,31
268,416	-23,03
268,789	-21,83
269,162	-20,65
269,535	-19,84
269,908	-19,25
270,281	-18,72
270,654	-18,52
271,027	-19,06
271,4	-19,4
271,773	-19,33
272,146	-19,1
272,519	-18,86
272,891	-18,9
273,264	-19,03
273,637	-19,14
274,01	-19,37
274,382	-20,02
274,755	-20,42
275,127	-20,74
275,5	-21,12
275,872	-21,39
276,245	-21,73
276,617	-22,26
276,99	-22,79
277,362	-23,41
277,734	-23,52
278,107	-23,18
278,479	-22,56
278,851	-22,07
279,223	-21,58
279,596	-21,52
279,968	-21,78
280,34	-21,59
280,712	-21,04
281,084	-20,06
281,456	-19,17
281,828	-18,33
282,2	-17,1
282,572	-15,95
282,944	-15,17
283,315	-14,68
283,687	-14,3
284,059	-14,2
284,431	-14,08
284,802	-13,78
285,174	-13,47
285,546	-13,18
285,917	-12,75
286,289	-12,44
286,66	-12,13
287,032	-11,93
287,403	-11,67
287,775	-11,19
288,146	-11,04
288,518	-11,16
288,889	-11,16
289,26	-11,13
289,632	-11,22
290,003	-11,45
290,374	-11,71
290,745	-11,86
291,116	-11,8
291,487	-11,77
291,858	-11,59
292,229	-11,47
292,6	-11,39
292,971	-11,08
293,342	-10,8
293,713	-10,45
294,084	-10,11
294,455	-9,66
294,826	-9,27
295,196	-9,21
295,567	-9,54
295,938	-9,49
296,308	-9,28
296,679	-9,15
297,05	-8,99
297,42	-8,83
297,791	-8,57
298,161	-8,36
298,532	-8,14
298,902	-7,94
299,272	-7,7
299,643	-7,48
300,013	-7,06
300,383	-6,79
300,754	-6,83
301,124	-6,95
301,494	-7,24
301,864	-7,57
302,234	-8,04
302,604	-8,33
302,974	-8,26
303,344	-8
303,714	-7,85
304,084	-7,56
304,454	-7,44
304,824	-7,44
305,194	-7,46
305,563	-7,54
305,933	-7,52
306,303	-7,43
306,673	-7,34
307,042	-7,18
307,412	-6,94
307,781	-6,68
308,151	-6,5
308,521	-6,29
308,89	-6,13
309,259	-6,14
309,629	-6,11
309,998	-6,03
310,368	-5,98
310,737	-5,95
311,106	-5,86
311,475	-5,81
311,845	-5,97
312,214	-6,06
312,583	-6,06
312,952	-6,15
313,321	-6,15
313,69	-6,04
314,059	-6
314,428	-6,1
314,797	-6,31
315,166	-6,61
315,535	-7,07
315,904	-7,47
316,272	-7,63
316,641	-7,68
317,01	-7,55
317,379	-7,37
317,747	-7,15
318,116	-6,92
318,484	-6,77
318,853	-6,7
319,221	-6,71
319,59	-6,66
319,958	-6,47
320,327	-6,4
320,695	-6,25
321,063	-6,04
321,432	-5,93
321,8	-5,64
322,168	-5,38
322,536	-5,27
322,905	-4,94
323,273	-4,57
323,641	-4,2
324,009	-4
324,377	-3,9
324,745	-3,75
325,113	-3,67
325,481	-3,54
325,849	-3,53
326,216	-3,49
326,584	-3,35
326,952	-3,21
327,32	-3,04
327,687	-2,89
328,055	-2,61
328,423	-2,43
328,79	-2,45
329,158	-2,51
329,525	-2,67
329,893	-2,65
330,26	-2,44
330,628	-2,48
330,995	-2,56
331,362	-2,64
331,73	-2,66
332,097	-2,55
332,464	-2,42
332,831	-2,2
333,199	-2,1
333,566	-1,98
333,933	-1,82
334,3	-1,66
334,667	-1,59
335,034	-1,52
335,401	-1,51
335,768	-1,52
336,135	-1,49
336,502	-1,41
336,868	-1,25
337,235	-1,15
337,602	-1,1
337,969	-1,09
338,335	-0,93
338,702	-0,73
339,069	-0,74
339,435	-0,71
339,802	-0,64
340,168	-0,69
340,535	-0,72
340,901	-0,84
341,267	-0,93
341,634	-0,9
342	-0,89
342,366	-0,79
342,733	-0,77
343,099	-0,74
343,465	-0,76
343,831	-0,76
344,197	-0,68
344,563	-0,71
344,929	-0,7
345,295	-0,64
345,661	-0,56
346,027	-0,55
346,393	-0,59
346,759	-0,44
347,125	-0,35
347,491	-0,34
347,856	-0,29
348,222	-0,33
348,588	-0,17
348,953	0,03
349,319	0,03
349,684	0,03
350,05	0,02
350,415	0,07
350,781	0,09
351,146	0,17
351,512	0,27
351,877	0,29
352,242	0,37
352,608	0,43
352,973	0,46
353,338	0,48
353,703	0,5
354,068	0,56
354,433	0,58
354,798	0,61
355,164	0,65
355,528	0,68
355,893	0,76
356,258	0,77
356,623	0,79
356,988	0,9
357,353	0,94
357,718	0,99
358,082	1,04
358,447	1,1
358,812	1,2
359,176	1,26
359,541	1,32
359,905	1,36
360,27	1,38
360,634	1,4
360,999	1,47
361,363	1,5
361,728	1,5
362,092	1,55
362,456	1,6
362,821	1,67
363,185	1,78
363,549	1,86
363,913	1,9
364,277	1,94
364,641	1,94
365,005	2,01
365,369	2,04
365,733	2,09
366,097	2,13
366,461	2,14
366,825	2,16
367,189	2,2
367,553	2,26
367,916	2,38
368,28	2,51
368,644	2,59
369,007	2,68
369,371	2,79
369,734	2,86
370,098	2,91
370,461	2,96
370,825	2,97
371,188	2,98
371,552	3,02
371,915	3,02
372,278	3,11
372,642	3,19
373,005	3,3
373,368	3,4
373,731	3,51
374,094	3,59
374,457	3,65
374,82	3,73
375,183	3,81
375,546	3,86
375,909	3,9
376,272	3,97
376,635	4,02
376,998	4,09
377,361	4,15
377,723	4,22
378,086	4,29
378,449	4,34
378,811	4,41
379,174	4,51
379,537	4,62
379,899	4,7
380,262	4,72
380,624	4,78
380,987	4,83
381,349	4,85
381,711	4,89
382,074	4,94
382,436	5,03
382,798	5,1
383,16	5,11
383,522	5,13
383,884	5,15
384,247	5,21
384,609	5,24
384,971	5,27
385,333	5,28
385,695	5,3
386,056	5,34
386,418	5,36
386,78	5,33
387,142	5,28
387,504	5,25
387,865	5,28
388,227	5,26
388,589	5,24
388,95	5,25
389,312	5,24
389,673	5,27
390,035	5,24
390,396	5,23
390,758	5,27
391,119	5,3
391,48	5,33
391,842	5,32
392,203	5,33
392,564	5,34
392,925	5,36
393,286	5,35
393,648	5,35
394,009	5,36
394,37	5,39
394,731	5,45
395,092	5,49
395,452	5,51
395,813	5,53
396,174	5,55
396,535	5,58
396,896	5,62
397,257	5,64
397,617	5,67
397,978	5,69
398,338	5,69
398,699	5,71
399,06	5,76
399,42	5,76
399,781	5,79
400,141	5,79
400,501	5,8
400,862	5,82
401,222	5,83
401,582	5,84
401,943	5,87
402,303	5,86
402,663	5,84
403,023	5,84
403,383	5,89
403,743	5,92
404,103	5,93
404,463	5,94
404,823	5,95
405,183	5,95
405,543	5,97
405,903	5,99
406,262	5,97
406,622	5,92
406,982	5,92
407,342	5,94
407,701	5,97
408,061	5,99
408,42	6
408,78	6,02
409,139	6,03
409,499	6,03
409,858	6,03
410,217	6,06
410,577	6,06
410,936	6,02
411,295	5,97
411,655	5,94
412,014	5,91
412,373	5,88
412,732	5,84
413,091	5,82
413,45	5,77
413,809	5,75
414,168	5,7
414,527	5,67
414,886	5,6
415,245	5,55
415,603	5,5
415,962	5,46
416,321	5,41
416,679	5,37
417,038	5,32
417,397	5,28
417,755	5,25
418,114	5,24
418,472	5,23
418,831	5,22
419,189	5,21
419,547	5,19
419,906	5,17
420,264	5,15
420,622	5,12
420,981	5,12
421,339	5,12
421,697	5,12
422,055	5,13
422,413	5,15
422,771	5,17
423,129	5,19
423,487	5,21
423,845	5,25
424,203	5,29
424,56	5,33
424,918	5,37
425,276	5,4
425,634	5,41
425,991	5,44
426,349	5,47
426,707	5,5
427,064	5,55
427,422	5,58
427,779	5,62
428,137	5,7
428,494	5,76
428,851	5,77
429,209	5,79
429,566	5,79
429,923	5,77
430,28	5,74
430,637	5,73
430,995	5,71
431,352	5,69
431,709	5,66
432,066	5,67
432,423	5,66
432,78	5,68
433,137	5,68
433,493	5,66
433,85	5,68
434,207	5,66
434,564	5,64
434,92	5,62
435,277	5,61
435,634	5,58
435,99	5,54
436,347	5,53
436,703	5,53
437,06	5,52
437,416	5,54
437,773	5,53
438,129	5,53
438,485	5,54
438,841	5,53
439,198	5,54
439,554	5,53
439,91	5,54
440,266	5,53
440,622	5,53
440,978	5,53
441,334	5,49
441,69	5,48
442,046	5,46
442,402	5,44
442,758	5,44
443,113	5,44
443,469	5,44
443,825	5,45
444,181	5,46
444,536	5,48
444,892	5,49
445,247	5,52
445,603	5,53
445,958	5,54
446,314	5,55
446,669	5,55
447,025	5,55
447,38	5,55
447,735	5,55
448,09	5,55
448,446	5,57
448,801	5,58
449,156	5,6
449,511	5,64
449,866	5,69
450,221	5,74
450,576	5,77
450,931	5,82
451,286	5,84
451,641	5,86
451,995	5,87
452,35	5,89
452,705	5,9
453,06	5,91
453,414	5,93
453,769	5,93
454,123	5,94
454,478	5,92
454,832	5,93
455,187	5,91
455,541	5,89
455,896	5,86
456,25	5,82
456,604	5,79
456,958	5,78
457,313	5,77
457,667	5,75
458,021	5,76
458,375	5,76
458,729	5,8
459,083	5,81
459,437	5,8
459,791	5,79
460,145	5,78
460,499	5,78
460,852	5,77
461,206	5,76
461,56	5,75
461,914	5,76
462,267	5,76
462,621	5,77
462,974	5,79
463,328	5,82
463,681	5,84
464,035	5,87
464,388	5,88
464,742	5,87
465,095	5,88
465,448	5,86
465,801	5,87
466,155	5,84
466,508	5,82
466,861	5,81
467,214	5,81
467,567	5,81
467,92	5,81
468,273	5,81
468,626	5,83
468,979	5,83
469,332	5,84
469,684	5,83
470,037	5,84
470,39	5,85
470,743	5,88
471,095	5,91
471,448	5,93
471,8	5,95
472,153	5,97
472,505	5,97
472,858	5,98
473,21	5,98
473,562	5,98
473,915	6
474,267	6,01
474,619	6,01
474,971	6,01
475,324	6
475,676	6
476,028	5,99
476,38	5,99
476,732	5,97
477,084	5,97
477,436	5,97
477,787	5,95
478,139	5,92
478,491	5,9
478,843	5,89
479,195	5,86
479,546	5,81
479,898	5,76
480,249	5,67
480,601	5,6
480,952	5,59
481,304	5,59
481,655	5,6
482,007	5,6
482,358	5,61
482,709	5,61
483,061	5,61
483,412	5,6
483,763	5,6
484,114	5,6
484,465	5,59
484,816	5,59
485,167	5,59
485,518	5,6
485,869	5,61
486,22	5,62
486,571	5,63
486,922	5,64
487,272	5,66
487,623	5,7
487,974	5,73
488,324	5,74
488,675	5,73
489,025	5,72
489,376	5,73
489,726	5,73
490,077	5,74
490,427	5,75
490,778	5,77
491,128	5,8
491,478	5,82
491,828	5,86
492,179	5,88
492,529	5,89
492,879	5,88
493,229	5,88
493,579	5,88
493,929	5,88
494,279	5,9
494,629	5,92
494,979	5,94
495,328	5,99
495,678	6,03
496,028	6,07
496,378	6,09
496,727	6,09
497,077	6,1
497,426	6,09
497,776	6,08
498,125	6,08
498,475	6,08
498,824	6,08
499,174	6,07
499,523	6,08
499,872	6,1
500,221	6,12
500,571	6,14
500,92	6,13
501,269	6,14
501,618	6,13
501,967	6,13
502,316	6,14
502,665	6,14
503,014	6,13
503,363	6,14
503,711	6,13
504,06	6,14
504,409	6,12
504,758	6,11
505,106	6,11
505,455	6,1
505,803	6,08
506,152	6,07
506,5	6,07
506,849	6,07
507,197	6,06
507,546	6,07
507,894	6,07
508,242	6,08
508,59	6,06
508,939	6,06
509,287	6,06
509,635	6,07
509,983	6,1
510,331	6,12
510,679	6,12
511,027	6,13
511,375	6,14
511,723	6,16
512,07	6,17
512,418	6,18
512,766	6,19
513,114	6,22
513,461	6,23
513,809	6,24
514,156	6,24
514,504	6,22
514,851	6,2
515,199	6,18
515,546	6,18
515,893	6,19
516,241	6,21
516,588	6,22
516,935	6,23
517,282	6,22
517,63	6,22
517,977	6,23
518,324	6,23
518,671	6,25
519,018	6,28
519,365	6,27
519,711	6,27
520,058	6,29
520,405	6,28
520,752	6,27
521,099	6,27
521,445	6,28
521,792	6,29
522,138	6,3
522,485	6,29
522,832	6,3
523,178	6,31
523,524	6,3
523,871	6,32
524,217	6,32
524,563	6,26
524,91	6,22
525,256	6,17
525,602	6,13
525,948	6,12
526,294	6,11
526,64	6,11
526,986	6,12
527,332	6,13
527,678	6,13
528,024	6,14
528,37	6,16
528,716	6,15
529,061	6,15
529,407	6,15
529,753	6,15
530,098	6,14
530,444	6,14
530,789	6,14
531,135	6,13
531,48	6,12
531,826	6,15
532,171	6,17
532,516	6,21
532,862	6,24
533,207	6,25
533,552	6,24
533,897	6,25
534,242	6,25
534,587	6,24
534,932	6,26
535,277	6,27
535,622	6,26
535,967	6,28
536,312	6,3
536,657	6,32
537,001	6,35
537,346	6,36
537,691	6,35
538,035	6,31
538,38	6,29
538,724	6,29
539,069	6,3
539,413	6,31
539,758	6,31
540,102	6,32
540,446	6,33
540,791	6,34
541,135	6,35
541,479	6,35
541,823	6,37
542,167	6,36
542,512	6,35
542,856	6,33
543,2	6,33
543,543	6,32
543,887	6,32
544,231	6,33
544,575	6,35
544,919	6,38
545,262	6,44
545,606	6,49
545,95	6,49
546,293	6,49
546,637	6,49
546,98	6,49
547,324	6,47
547,667	6,49
548,011	6,49
548,354	6,49
548,697	6,48
549,04	6,45
549,384	6,44
549,727	6,43
550,07	6,45
550,413	6,45
550,756	6,46
551,099	6,46
551,442	6,44
551,785	6,42
552,128	6,42
552,47	6,4
552,813	6,38
553,156	6,38
553,499	6,37
553,841	6,35
554,184	6,35
554,526	6,34
554,869	6,29
555,211	6,29
555,554	6,29
555,896	6,28
556,238	6,27
556,581	6,26
556,923	6,24
557,265	6,22
557,607	6,2
557,949	6,17
558,291	6,14
558,633	6,15
558,975	6,16
559,317	6,14
559,659	6,13
560,001	6,12
560,343	6,09
560,685	6,06
561,026	6,07
561,368	6,06
561,71	6,04
562,051	6,02
562,393	5,99
562,734	5,96
563,076	5,94
563,417	5,91
563,759	5,91
564,1	5,91
564,441	5,9
564,782	5,89
565,124	5,88
565,465	5,89
565,806	5,86
566,147	5,83
566,488	5,8
566,829	5,78
567,17	5,76
567,511	5,75
567,851	5,74
568,192	5,71
568,533	5,69
568,874	5,7
569,214	5,7
569,555	5,68
569,895	5,66
570,236	5,65
570,576	5,65
570,917	5,64
571,257	5,6
571,598	5,59
571,938	5,59
572,278	5,57
572,618	5,56
572,959	5,56
573,299	5,55
573,639	5,54
573,979	5,52
574,319	5,51
574,659	5,51
574,999	5,5
575,339	5,5
575,678	5,51
576,018	5,51
576,358	5,49
576,698	5,49
577,037	5,49
577,377	5,48
577,716	5,45
578,056	5,43
578,395	5,4
578,735	5,38
579,074	5,35
579,413	5,34
579,753	5,3
580,092	5,24
580,431	5,24
580,77	5,25
581,109	5,24
581,448	5,23
581,787	5,19
582,126	5,18
582,465	5,17
582,804	5,15
583,143	5,12
583,482	5,12
583,82	5,13
584,159	5,14
584,498	5,13
584,836	5,12
585,175	5,11
585,514	5,14
585,852	5,15
586,19	5,16
586,529	5,13
586,867	5,15
587,205	5,19
587,544	5,21
587,882	5,21
588,22	5,25
588,558	5,25
588,896	5,27
589,234	5,28
589,572	5,28
589,91	5,29
590,248	5,29
590,586	5,28
590,924	5,26
591,262	5,24
591,599	5,23
591,937	5,25
592,275	5,26
592,612	5,25
592,95	5,25
593,287	5,26
593,625	5,27
593,962	5,26
594,299	5,26
594,637	5,26
594,974	5,28
595,311	5,27
595,648	5,29
595,985	5,3
596,322	5,29
596,659	5,31
596,996	5,31
597,333	5,3
597,67	5,29
598,007	5,31
598,344	5,33
598,681	5,35
599,017	5,36
599,354	5,37
599,691	5,37
600,027	5,38
600,364	5,4
600,7	5,42
601,037	5,44
601,373	5,47
601,71	5,48
602,046	5,49
602,382	5,5
602,718	5,5
603,054	5,52
603,391	5,54
603,727	5,54
604,063	5,54
604,399	5,56
604,735	5,59
605,071	5,59
605,406	5,58
605,742	5,56
606,078	5,6
606,414	5,63
606,749	5,66
607,085	5,68
607,421	5,69
607,756	5,69
608,092	5,7
608,427	5,71
608,762	5,71
609,098	5,69
609,433	5,69
609,768	5,68
610,104	5,66
610,439	5,64
610,774	5,64
611,109	5,63
611,444	5,62
611,779	5,59
612,114	5,57
612,449	5,6
612,784	5,6
613,118	5,55
613,453	5,52
613,788	5,46
614,123	5,43
614,457	5,38
614,792	5,34
615,126	5,31
615,461	5,28
615,795	5,26
616,13	5,25
616,464	5,2
616,798	5,18
617,132	5,17
617,467	5,16
617,801	5,13
618,135	5,13
618,469	5,13
618,803	5,16
619,137	5,17
619,471	5,17
619,805	5,18
620,139	5,19
620,472	5,2
620,806	5,22
621,14	5,21
621,473	5,22
621,807	5,21
622,141	5,22
622,474	5,2
622,808	5,18
623,141	5,15
623,474	5,18
623,808	5,22
624,141	5,27
624,474	5,33
624,807	5,35
625,141	5,39
625,474	5,45
625,807	5,48
626,14	5,5
626,473	5,51
626,806	5,53
627,138	5,54
627,471	5,53
627,804	5,54
628,137	5,56
628,469	5,57
628,802	5,58
629,135	5,59
629,467	5,59
629,8	5,6
630,132	5,64
630,465	5,64
630,797	5,62
631,129	5,57
631,461	5,52
631,794	5,52
632,126	5,51
632,458	5,5
632,79	5,49
633,122	5,47
633,454	5,44
633,786	5,41
634,118	5,39
634,45	5,39
634,781	5,39
635,113	5,4
635,445	5,41
635,777	5,41
636,108	5,4
636,44	5,39
636,771	5,4
637,103	5,38
637,434	5,37
637,765	5,35
638,097	5,36
638,428	5,37
638,759	5,39
639,09	5,37
639,422	5,33
639,753	5,3
640,084	5,26
640,415	5,27
640,746	5,31
641,077	5,33
641,407	5,35
641,738	5,33
642,069	5,31
642,4	5,31
642,73	5,31
643,061	5,32
643,392	5,31
643,722	5,33
644,053	5,34
644,383	5,36
644,713	5,4
645,044	5,43
645,374	5,43
645,704	5,43
646,034	5,41
646,365	5,38
646,695	5,39
647,025	5,44
647,355	5,46
647,685	5,45
648,015	5,46
648,344	5,46
648,674	5,51
649,004	5,54
649,334	5,52
649,663	5,54
649,993	5,57
650,323	5,63
650,652	5,63
650,982	5,64
651,311	5,63
651,64	5,59
651,97	5,58
652,299	5,59
652,628	5,62
652,958	5,66
653,287	5,73
653,616	5,74
653,945	5,7
654,274	5,69
654,603	5,7
654,932	5,68
655,261	5,69
655,589	5,68
655,918	5,7
656,247	5,75
656,576	5,78
656,904	5,8
657,233	5,82
657,561	5,86
657,89	5,93
658,218	5,97
658,547	6,02
658,875	6,05
659,203	6,06
659,532	6,04
659,86	6,02
660,188	5,99
660,516	6
660,844	6,05
661,172	6,09
661,5	6,12
661,828	6,15
662,156	6,16
662,484	6,16
662,811	6,16
663,139	6,15
663,467	6,14
663,794	6,11
664,122	6,08
664,45	6,03
664,777	5,97
665,104	5,99
665,432	5,94
665,759	5,92
666,086	5,93
666,414	5,98
666,741	6
667,068	6,03
667,395	6,04
667,722	6,03
668,049	6,03
668,376	6,02
668,703	6,03
669,03	6,08
669,357	6,07
669,683	6,04
670,01	6,04
670,337	6,03
670,663	6,03
670,99	6,01
671,317	6,04
671,643	6,01
671,969	5,94
672,296	5,96
672,622	5,97
672,948	5,93
673,275	5,85
673,601	5,81
673,927	5,78
674,253	5,77
674,579	5,76
674,905	5,7
675,231	5,67
675,557	5,63
675,883	5,58
676,209	5,58
676,534	5,59
676,86	5,58
677,186	5,58
677,511	5,61
677,837	5,67
678,162	5,73
678,488	5,82
678,813	5,91
679,139	5,97
679,464	6
679,789	6,02
680,114	6,07
680,44	6,09
680,765	6,09
681,09	6,07
681,415	6,05
681,74	6,09
682,065	6,13
682,39	6,17
682,714	6,19
683,039	6,2
683,364	6,21
683,689	6,22
684,013	6,23
684,338	6,2
684,662	6,14
684,987	6,1
685,311	6,04
685,636	6
685,96	5,96
686,284	5,95
686,608	5,94
686,933	5,95
687,257	5,98
687,581	6,01
687,905	6,04
688,229	6,08
688,553	6,04
688,877	5,99
689,201	5,94
689,524	5,93
689,848	5,94
690,172	5,96
690,496	5,97
690,819	5,98
691,143	6,01
691,466	6,02
691,79	5,98
692,113	5,95
692,436	5,9
692,76	5,87
693,083	5,88
693,406	5,91
693,729	5,85
694,053	5,82
694,376	5,8
694,699	5,78
695,022	5,84
695,344	5,93
695,667	5,99
695,99	6,12
696,313	6,22
696,636	6,29
696,958	6,35
697,281	6,44
697,604	6,49
697,926	6,51
698,249	6,54
698,571	6,56
698,893	6,58
699,216	6,59
699,538	6,57
699,86	6,56
700,182	6,55
700,504	6,59
700,827	6,59
701,149	6,59
701,471	6,6
701,793	6,54
702,114	6,5
702,436	6,46
702,758	6,33
703,08	6,17
703,401	6,04
703,723	5,9
704,045	5,75
704,366	5,7
704,688	5,66
705,009	5,68
705,331	5,71
705,652	5,74
705,973	5,76
706,294	5,75
706,616	5,76
706,937	5,77
707,258	5,77
707,579	5,73
707,9	5,74
708,221	5,72
708,542	5,77
708,863	5,81
709,183	5,84
709,504	5,9
709,825	5,95
710,145	6,02
710,466	6,07
710,787	6,09
711,107	6,12
711,427	6,1
711,748	6,07
712,068	6,07
712,388	6,04
712,709	6,11
713,029	6,2
713,349	6,18
713,669	6,18
713,989	6,18
714,309	6,26
714,629	6,34
714,949	6,46
715,269	6,54
715,589	6,57
715,908	6,6
716,228	6,63
716,548	6,68
716,867	6,7
717,187	6,72
717,506	6,73
717,826	6,73
718,145	6,78
718,465	6,86
718,784	6,85
719,103	6,88
719,422	6,87
719,741	6,93
720,061	7,05
720,38	7,23
720,699	7,31
721,018	7,38
721,336	7,45
721,655	7,51
721,974	7,56
722,293	7,67
722,612	7,88
722,93	8,05
723,249	8,14
723,567	8,23
723,886	8,39
724,204	8,57
724,523	8,73
724,841	8,88
725,159	9,01
725,477	9,23
725,796	9,44
726,114	9,6
726,432	9,67
726,75	9,73
727,068	9,77
727,386	9,95
727,704	10,04
728,022	10,09
728,339	10,16
728,657	10,16
728,975	10,18
729,292	10,14
729,61	10,19
729,928	10,3
730,245	10,43
730,562	10,6
730,88	10,72
731,197	10,81
731,514	10,86
731,832	10,92
732,149	10,96
732,466	10,97
732,783	11,09
733,1	11,2
733,417	11,35
733,734	11,53
734,051	11,57
734,368	11,63
734,684	11,76
735,001	11,87
735,318	12,01
735,634	12,1
735,951	12,18
736,268	12,19
736,584	12,21
736,9	12,22
737,217	12,16
737,533	12,15
737,849	12,22
738,166	12,36
738,482	12,47
738,798	12,65
739,114	12,82
739,43	12,84
739,746	12,85
740,062	12,86
740,378	12,85
740,693	12,99
741,009	13,21
741,325	13,3
741,641	13,26
741,956	13,31
742,272	13,48
742,587	13,69
742,903	13,86
743,218	13,97
743,533	14,13
743,849	14,28
744,164	14,31
744,479	14,43
744,794	14,57
745,109	14,67
745,424	14,74
745,739	14,77
746,054	14,76
746,369	14,84
746,684	14,94
746,999	14,92
747,313	14,85
747,628	14,77
747,943	14,73
748,257	14,83
748,572	14,99
748,886	15,13
749,201	15,15
749,515	15,16
749,829	15,19
750,144	15,23
750,458	15,31
750,772	15,47
751,086	15,47
751,4	15,43
751,714	15,43
752,028	15,34
752,342	15,3
752,656	15,34
752,97	15,43
753,284	15,48
753,597	15,55
753,911	15,64
754,225	15,64
754,538	15,74
754,852	15,78
755,165	15,75
755,478	15,64
755,792	15,62
756,105	15,66
756,418	15,77
756,731	15,8
757,045	15,88
757,358	15,9
757,671	16,01
757,984	16,19
758,297	16,24
758,609	16,35
758,922	16,58
759,235	16,75
759,548	16,78
759,86	16,81
760,173	16,77
760,486	16,68
760,798	16,55
761,111	16,47
761,423	16,38
761,735	16,29
762,048	16,31
762,36	16,32
762,672	16,44
762,984	16,47
763,296	16,55
763,608	16,6
763,92	16,65
764,232	16,59
764,544	16,52
764,856	16,55
765,168	16,67
765,48	16,69
765,791	16,74
766,103	16,81
766,414	16,93
766,726	17,2
767,037	17,49
767,349	17,88
767,66	18,24
767,972	18,66
768,283	19,09
768,594	19,31
768,905	19,57
769,216	19,7
769,527	19,96
769,838	20,12
770,149	20,29
770,46	20,51
770,771	20,81
771,082	21
771,393	21,36
771,703	21,59
772,014	21,85
772,324	22,06
772,635	22,37
772,945	22,5
773,256	22,59
773,566	22,82
773,877	22,95
774,187	22,99
774,497	23,15
774,807	23,43
775,117	23,69
775,427	23,87
775,737	24,13
776,047	24,24
776,357	24,44
776,667	24,53
776,977	24,82
777,287	25,06
777,596	25,19
777,906	25,24
778,216	25,24
778,525	25,33
778,835	25,52
779,144	25,13
779,453	25
779,763	25,01
780,072	24,92
780,381	25,14
780,69	25,41
781	25,55
781,309	25,4
781,618	25,33
781,927	25,33
782,235	25,5
782,544	25,71
782,853	25,9
783,162	26,06
783,471	25,98
783,779	26,06
784,088	26,12
784,396	26,23
784,705	26,3
785,013	26,21
785,322	26,05
785,63	26,43
785,938	26,45
786,246	26,31
786,554	26,3
786,863	26,07
787,171	25,88
787,479	25,89
787,787	26,01
788,094	26,36
788,402	26,45
788,71	26,27
789,018	26,25
789,326	26,19
789,633	26,04
789,941	25,94
790,248	25,79
790,556	26
790,863	25,95
791,171	25,9
791,478	25,89
791,785	26,02
792,092	25,99
792,399	26,25
792,707	26,56
793,014	26,75
793,321	27,01
793,628	27,19
793,934	27,28
794,241	27,37
794,548	27,33
794,855	27,31
795,161	27,45
795,468	27,34
795,775	27,31
796,081	27,47
796,388	27,77
796,694	27,89
797	27,84
797,307	27,94
797,613	27,99
797,919	28,12
798,225	28,14
798,531	28,18
798,837	28,04
799,143	27,89
799,449	27,75
799,755	27,91
800,061	28,13
800,367	28,19
800,672	28,2
800,978	28,33
801,284	28,49
801,589	28,41
801,895	28,49
802,2	28,57
802,506	28,56
802,811	28,45
803,116	28,39
803,421	28,24
803,727	28,15
804,032	28,18
804,337	28,17
804,642	28,27
804,947	28,29
805,252	28,47
805,556	28,84
805,861	29,04
806,166	28,77
806,471	28,73
806,775	28,86
807,08	29
807,384	29,1
807,689	29,11
807,993	29,33
808,298	29,7
808,602	29,98
808,906	30,23
809,211	30,16
809,515	30,31
809,819	30,7
810,123	30,88
810,427	31,17
810,731	31,35
811,035	31,64
811,338	31,94
811,642	32,26
811,946	32,35
812,25	32,56
812,553	32,87
812,857	32,87
813,16	32,69
813,464	32,51
813,767	32,44
814,07	32,61
814,374	32,88
814,677	32,66
814,98	32,45
815,283	32,25
815,586	32,26
815,889	32,22
816,192	32,07
816,495	32,01
816,798	31,75
817,101	31,48
817,404	30,88
817,706	30,39
818,009	29,69
818,312	28,66
818,614	27,53
818,917	25,96
819,219	23,79
819,521	21,82
819,824	20,27
820,126	18,92
820,428	17,93
820,73	17,32
821,032	16,96
821,334	16,74
821,636	16,51
821,938	16,38
822,24	16,25
822,542	16,08
822,844	15,97
823,145	15,87
823,447	15,77
823,749	15,72
824,05	15,7
824,352	15,65
824,653	15,74
824,955	15,77
825,256	15,82
825,557	16,05
825,858	16,39
826,16	16,78
826,461	17,32
826,762	17,87
827,063	18,36
827,364	18,88
827,665	19,31
827,965	19,82
828,266	20,24
828,567	20,65
828,868	21,1
829,168	21,46
829,469	21,73
829,769	21,98
830,07	22,27
830,37	22,64
830,67	23,1
830,971	23,2
831,271	23,44
831,571	23,72
831,871	24,05
832,171	24,23
832,471	24,34
832,771	24,43
833,071	24,54
833,371	24,58
833,671	24,46
833,971	24,46
834,27	24,42
834,57	24,59
834,869	24,81
835,169	24,86
835,468	24,94
835,768	25,2
836,067	25,5
836,367	25,88
836,666	26,11
836,965	26,53
837,264	27,18
837,563	27,88
837,862	28,88
838,161	29,72
838,46	30,48
838,759	31,3
839,058	31,74
839,356	32,22
839,655	32,56
839,954	33,31
840,252	33,98
840,551	35,02
840,849	35,71
841,148	36,22
841,446	36,77
841,744	37,27
842,043	37,26
842,341	37,3
842,639	37,27
842,937	37,6
843,235	38,04
843,533	38,77
843,831	39,69
844,129	40,58
844,427	41,47
844,724	42,84
845,022	44,23
845,32	46,04
845,617	47,62
845,915	49,02
846,212	49,72
846,51	50,67
846,807	50,87
847,104	51,09
847,402	50,76
847,699	51,17
847,996	51,54
848,293	52,24
848,59	53,17
848,887	53,94
849,184	54,64
849,481	54,81
849,778	54,61
850,074	54,57
850,371	54,48
850,668	54,28
850,964	53,88
851,261	53,11
851,557	52,75
851,854	52,75
852,15	52,44
852,446	52,42
852,743	51,95
853,039	52,3
853,335	52,73
853,631	53,83
853,927	54,43
854,223	54,5
854,519	54,8
854,815	54,99
855,111	54,58
855,406	54,19
855,702	54,36
855,998	54,64
856,293	55,1
856,589	55,78
856,884	56,47
857,18	56,7
857,475	57,06
857,77	56,95
858,066	57,37
858,361	58,47
858,656	59,01
858,951	59,48
859,246	59,44
859,541	59,48
859,836	59,12
860,131	58,84
860,426	59,1
860,72	58,71
861,015	58,57
861,31	59,23
861,604	59,8
861,899	59,8
862,193	59,82
862,487	59,52
862,782	58,89
863,076	57,83
863,37	57,77
863,664	58,62
863,959	59,25
864,253	59,06
864,547	58,6
864,841	58,69
865,135	59,1
865,428	59,18
865,722	59,02
866,016	59,11
866,31	59,24
866,603	59,22
866,897	59,9
867,19	59,63
867,484	59,12
867,777	58,77
868,07	58,71
868,364	58,35
868,657	57,93
868,95	58,31
869,243	58,58
869,536	58,15
869,829	57,44
870,122	57,04
870,415	56,64
870,708	56,52
871	56,13
871,293	55,34
871,586	54,85
871,878	54,45
872,171	53,68
872,463	53,64
872,756	53,31
873,048	52,37
873,341	52,36
873,633	52,23
873,925	52,21
874,217	51,98
874,509	52,14
874,801	52,42
875,093	51,95
875,385	52,23
875,677	52,13
875,969	52,07
