Data from zc74019_2_Reflection_00001.txt Node
Date: Thu Mar 12 14:41:25 ART 2020
User: Ana
Spectrometer: USB2E3644
Trigger mode: 4
Integration Time (sec): 5,000000E-2
Scans to average: 10
Electric dark correction enabled: true
Nonlinearity correction enabled: false
Boxcar width: 10
XAxis mode: Wavelengths
Number of Pixels in Spectrum: 2048
>>>>>Begin Spectral Data<<<<<
178,315	94,01
178,696	89,64
179,076	75,76
179,457	60,37
179,838	51,63
180,218	48,15
180,599	-78,89
180,979	72,41
181,36	61,11
181,74	165,08
182,121	192,95
182,501	179,56
182,881	183,79
183,262	165,21
183,642	153,16
184,022	151,05
184,402	156,34
184,783	152,13
185,163	141,3
185,543	136,65
185,923	135,8
186,303	138,97
186,683	141,38
187,063	143,49
187,443	146,44
187,823	154,42
188,203	163,14
188,583	168,04
188,963	168,57
189,343	163,84
189,723	157,23
190,102	152,65
190,482	146,97
190,862	144,35
191,242	144,18
191,621	144,19
192,001	140,88
192,38	138,98
192,76	137,87
193,14	136,54
193,519	135,2
193,898	135,88
194,278	135,12
194,657	132,27
195,037	129,36
195,416	125,84
195,795	124,74
196,175	124,71
196,554	124,54
196,933	124,78
197,312	126,21
197,692	128,81
198,071	129,85
198,45	129,31
198,829	129,73
199,208	130,3
199,587	130,04
199,966	130,38
200,345	128,63
200,724	129,17
201,103	130,59
201,482	132,35
201,86	130,75
202,239	130,27
202,618	130,32
202,997	129,98
203,375	130,05
203,754	129,84
204,133	128,54
204,511	125,79
204,89	124,48
205,269	123,81
205,647	122,06
206,026	122,97
206,404	126,65
206,782	127,82
207,161	128,94
207,539	129,49
207,918	129,84
208,296	131
208,674	130,5
209,052	130,06
209,431	132,59
209,809	137,35
210,187	139,65
210,565	140,55
210,943	140,47
211,321	139,91
211,699	137,77
212,077	135,96
212,455	135,59
212,833	137,9
213,211	139,24
213,589	141,95
213,967	141,61
214,345	137,92
214,722	134,02
215,1	131,24
215,478	129,03
215,855	128,66
216,233	128,42
216,611	128,1
216,988	127,16
217,366	123,88
217,743	121,05
218,121	118,57
218,498	118,61
218,876	119,59
219,253	120,27
219,631	121,34
220,008	123,36
220,385	126,21
220,762	126,42
221,14	126,57
221,517	123,84
221,894	120,25
222,271	119,04
222,648	120,83
223,025	120,76
223,402	120,19
223,78	118,51
224,157	119,3
224,533	122,44
224,91	129,26
225,287	135,18
225,664	141,36
226,041	149,62
226,418	152,93
226,795	156,01
227,171	163,53
227,548	168,15
227,925	169,53
228,301	172,28
228,678	172,83
229,055	171,78
229,431	175,35
229,808	180,45
230,184	184,84
230,561	192,81
230,937	206,26
231,313	220,4
231,69	226,38
232,066	228,12
232,442	220,65
232,819	212,51
233,195	208,7
233,571	207,11
233,947	202,92
234,323	205,09
234,699	208,07
235,075	209,51
235,451	215,18
235,827	220,6
236,203	228,62
236,579	242,3
236,955	262,74
237,331	287,88
237,707	333,15
238,083	408,91
238,459	533,64
238,834	934,59
239,21	5781,11
239,586	-1327,95
239,961	-764,75
240,337	-544,41
240,713	-468,4
241,088	-426,85
241,464	-397,73
241,839	-364,05
242,215	-303,22
242,59	-239,88
242,965	-167,85
243,341	-116,44
243,716	-85,93
244,091	-71,87
244,467	-63,87
244,842	-57,58
245,217	-52,55
245,592	-50,34
245,967	-51,27
246,343	-51,29
246,718	-51,54
247,093	-52,37
247,468	-53,5
247,843	-52,83
248,218	-50,66
248,593	-47,02
248,967	-43,75
249,342	-42
249,717	-40,64
250,092	-40,08
250,467	-40,45
250,841	-43,61
251,216	-49,84
251,591	-58,24
251,965	-65,2
252,34	-70,17
252,714	-77,41
253,089	-82,53
253,463	-84,58
253,838	-81,2
254,212	-78,19
254,587	-74,91
254,961	-68,09
255,335	-60,01
255,71	-51,46
256,084	-41,93
256,458	-35,06
256,832	-30,72
257,206	-28,16
257,581	-26,57
257,955	-25,68
258,329	-24,65
258,703	-23,13
259,077	-21,78
259,451	-20,72
259,825	-20,4
260,199	-20,71
260,572	-20,58
260,946	-20,74
261,32	-20,82
261,694	-20,8
262,068	-20,6
262,441	-20,36
262,815	-20,51
263,189	-20,41
263,562	-20,78
263,936	-22,5
264,309	-24,81
264,683	-26,99
265,056	-27,91
265,43	-28,41
265,803	-28,23
266,176	-27,94
266,55	-27,54
266,923	-27,2
267,296	-26,54
267,67	-25,36
268,043	-24,26
268,416	-22,54
268,789	-20,68
269,162	-19,08
269,535	-17,67
269,908	-16,44
270,281	-15,64
270,654	-15,13
271,027	-15,29
271,4	-15,34
271,773	-15,06
272,146	-14,79
272,519	-14,58
272,891	-14,32
273,264	-14,26
273,637	-14,34
274,01	-14,25
274,382	-14,52
274,755	-14,58
275,127	-14,61
275,5	-14,73
275,872	-14,65
276,245	-14,91
276,617	-15,6
276,99	-16
277,362	-16,58
277,734	-17,18
278,107	-17,55
278,479	-17,59
278,851	-17,15
279,223	-16,83
279,596	-16,91
279,968	-17,05
280,34	-17,01
280,712	-16,97
281,084	-16,3
281,456	-15,32
281,828	-14,46
282,2	-13,52
282,572	-12,71
282,944	-12,06
283,315	-11,8
283,687	-11,46
284,059	-11,14
284,431	-10,87
284,802	-10,67
285,174	-10,41
285,546	-10,15
285,917	-9,67
286,289	-9,44
286,66	-9,38
287,032	-9,1
287,403	-8,82
287,775	-8,7
288,146	-8,71
288,518	-8,75
288,889	-8,66
289,26	-8,76
289,632	-9,17
290,003	-9,59
290,374	-9,77
290,745	-9,87
291,116	-9,93
291,487	-9,92
291,858	-9,91
292,229	-9,71
292,6	-9,48
292,971	-9,1
293,342	-8,82
293,713	-8,47
294,084	-8,05
294,455	-7,52
294,826	-7,37
295,196	-7,34
295,567	-7,37
295,938	-7,17
296,308	-6,88
296,679	-6,79
297,05	-6,56
297,42	-6,15
297,791	-5,56
298,161	-5,4
298,532	-5,24
298,902	-4,93
299,272	-4,79
299,643	-4,68
300,013	-4,4
300,383	-4,18
300,754	-4,09
301,124	-4,02
301,494	-4,11
301,864	-4,18
302,234	-4,43
302,604	-4,38
302,974	-4,16
303,344	-3,98
303,714	-3,94
304,084	-3,84
304,454	-3,81
304,824	-3,97
305,194	-4,19
305,563	-4,48
305,933	-4,5
306,303	-4,35
306,673	-4,17
307,042	-4,03
307,412	-3,86
307,781	-3,68
308,151	-3,55
308,521	-3,47
308,89	-3,38
309,259	-3,37
309,629	-3,39
309,998	-3,35
310,368	-3,38
310,737	-3,37
311,106	-3,21
311,475	-2,99
311,845	-3
312,214	-2,96
312,583	-2,9
312,952	-2,89
313,321	-2,76
313,69	-2,5
314,059	-2,43
314,428	-2,49
314,797	-2,51
315,166	-2,71
315,535	-3,03
315,904	-3,22
316,272	-3,36
316,641	-3,48
317,01	-3,52
317,379	-3,6
317,747	-3,47
318,116	-3,23
318,484	-3,1
318,853	-3,1
319,221	-3,12
319,59	-3,07
319,958	-2,98
320,327	-2,92
320,695	-2,75
321,063	-2,53
321,432	-2,36
321,8	-2,26
322,168	-2,21
322,536	-2,27
322,905	-1,88
323,273	-1,49
323,641	-1,27
324,009	-1,04
324,377	-0,97
324,745	-0,83
325,113	-0,68
325,481	-0,5
325,849	-0,35
326,216	-0,24
326,584	-0,16
326,952	-0,09
327,32	0,12
327,687	0,22
328,055	0,42
328,423	0,54
328,79	0,48
329,158	0,34
329,525	0,35
329,893	0,46
330,26	0,85
330,628	0,93
330,995	1,05
331,362	1,07
331,73	1,07
332,097	1,18
332,464	1,21
332,831	1,34
333,199	1,3
333,566	1,25
333,933	1,26
334,3	1,39
334,667	1,46
335,034	1,46
335,401	1,55
335,768	1,61
336,135	1,68
336,502	1,71
336,868	1,75
337,235	1,8
337,602	1,82
337,969	1,74
338,335	1,67
338,702	1,64
339,069	1,67
339,435	1,7
339,802	1,76
340,168	1,81
340,535	1,87
340,901	1,88
341,267	1,85
341,634	1,85
342	1,75
342,366	1,79
342,733	1,8
343,099	1,84
343,465	1,85
343,831	1,88
344,197	1,94
344,563	1,95
344,929	1,96
345,295	2,04
345,661	2,15
346,027	2,28
346,393	2,29
346,759	2,34
347,125	2,35
347,491	2,42
347,856	2,5
348,222	2,48
348,588	2,57
348,953	2,61
349,319	2,61
349,684	2,76
350,05	2,8
350,415	2,9
350,781	2,9
351,146	2,92
351,512	2,94
351,877	2,92
352,242	2,94
352,608	3,02
352,973	3,03
353,338	3
353,703	2,98
354,068	3
354,433	3,07
354,798	3,14
355,164	3,14
355,528	3,14
355,893	3,16
356,258	3,19
356,623	3,32
356,988	3,49
357,353	3,48
357,718	3,44
358,082	3,41
358,447	3,46
358,812	3,56
359,176	3,68
359,541	3,84
359,905	3,98
360,27	4,03
360,634	4,11
360,999	4,24
361,363	4,36
361,728	4,42
362,092	4,44
362,456	4,47
362,821	4,58
363,185	4,7
363,549	4,79
363,913	4,86
364,277	4,88
364,641	4,87
365,005	4,99
365,369	5,12
365,733	5,25
366,097	5,37
366,461	5,4
366,825	5,44
367,189	5,47
367,553	5,52
367,916	5,61
368,28	5,67
368,644	5,74
369,007	5,82
369,371	5,93
369,734	6,05
370,098	6,12
370,461	6,17
370,825	6,22
371,188	6,28
371,552	6,35
371,915	6,42
372,278	6,5
372,642	6,58
373,005	6,68
373,368	6,79
373,731	6,82
374,094	6,88
374,457	6,95
374,82	7,02
375,183	7,06
375,546	7,1
375,909	7,18
376,272	7,25
376,635	7,29
376,998	7,32
377,361	7,39
377,723	7,45
378,086	7,47
378,449	7,49
378,811	7,52
379,174	7,56
379,537	7,62
379,899	7,67
380,262	7,68
380,624	7,72
380,987	7,77
381,349	7,84
381,711	7,94
382,074	8,01
382,436	8,09
382,798	8,21
383,16	8,22
383,522	8,22
383,884	8,24
384,247	8,3
384,609	8,37
384,971	8,4
385,333	8,44
385,695	8,52
386,056	8,57
386,418	8,61
386,78	8,62
387,142	8,63
387,504	8,66
387,865	8,71
388,227	8,72
388,589	8,74
388,95	8,74
389,312	8,72
389,673	8,72
390,035	8,73
390,396	8,74
390,758	8,8
391,119	8,84
391,48	8,85
391,842	8,85
392,203	8,85
392,564	8,87
392,925	8,94
393,286	8,96
393,648	9,01
394,009	9,05
394,37	9,1
394,731	9,16
395,092	9,21
395,452	9,22
395,813	9,24
396,174	9,27
396,535	9,32
396,896	9,35
397,257	9,41
397,617	9,46
397,978	9,49
398,338	9,5
398,699	9,59
399,06	9,71
399,42	9,73
399,781	9,77
400,141	9,81
400,501	9,82
400,862	9,85
401,222	9,89
401,582	9,96
401,943	10,03
402,303	10,08
402,663	10,13
403,023	10,21
403,383	10,32
403,743	10,38
404,103	10,48
404,463	10,59
404,823	10,67
405,183	10,76
405,543	10,85
405,903	10,92
406,262	10,98
406,622	10,99
406,982	11,1
407,342	11,18
407,701	11,27
408,061	11,37
408,42	11,48
408,78	11,58
409,139	11,65
409,499	11,74
409,858	11,85
410,217	11,94
410,577	12,03
410,936	12,06
411,295	12,13
411,655	12,17
412,014	12,18
412,373	12,18
412,732	12,18
413,091	12,17
413,45	12,18
413,809	12,17
414,168	12,16
414,527	12,12
414,886	12,09
415,245	12,07
415,603	12,03
415,962	11,97
416,321	11,92
416,679	11,87
417,038	11,78
417,397	11,7
417,755	11,64
418,114	11,58
418,472	11,56
418,831	11,54
419,189	11,51
419,547	11,49
419,906	11,47
420,264	11,43
420,622	11,41
420,981	11,39
421,339	11,37
421,697	11,37
422,055	11,4
422,413	11,42
422,771	11,45
423,129	11,49
423,487	11,55
423,845	11,6
424,203	11,67
424,56	11,75
424,918	11,82
425,276	11,89
425,634	11,99
425,991	12,04
426,349	12,09
426,707	12,17
427,064	12,25
427,422	12,35
427,779	12,46
428,137	12,57
428,494	12,71
428,851	12,82
429,209	12,87
429,566	12,87
429,923	12,87
430,28	12,86
430,637	12,84
430,995	12,82
431,352	12,81
431,709	12,78
432,066	12,8
432,423	12,82
432,78	12,84
433,137	12,83
433,493	12,83
433,85	12,87
434,207	12,84
434,564	12,82
434,92	12,8
435,277	12,79
435,634	12,76
435,99	12,73
436,347	12,69
436,703	12,72
437,06	12,72
437,416	12,73
437,773	12,74
438,129	12,72
438,485	12,73
438,841	12,73
439,198	12,74
439,554	12,75
439,91	12,73
440,266	12,73
440,622	12,73
440,978	12,69
441,334	12,63
441,69	12,59
442,046	12,55
442,402	12,49
442,758	12,45
443,113	12,43
443,469	12,4
443,825	12,4
444,181	12,39
444,536	12,43
444,892	12,42
445,247	12,44
445,603	12,46
445,958	12,47
446,314	12,47
446,669	12,47
447,025	12,47
447,38	12,48
447,735	12,48
448,09	12,47
448,446	12,5
448,801	12,53
449,156	12,56
449,511	12,61
449,866	12,68
450,221	12,73
450,576	12,81
450,931	12,87
451,286	12,92
451,641	12,95
451,995	12,96
452,35	13,04
452,705	13,03
453,06	13,01
453,414	13,02
453,769	13,03
454,123	13,02
454,478	13,01
454,832	12,99
455,187	12,93
455,541	12,89
455,896	12,82
456,25	12,78
456,604	12,71
456,958	12,67
457,313	12,64
457,667	12,64
458,021	12,63
458,375	12,64
458,729	12,66
459,083	12,68
459,437	12,67
459,791	12,65
460,145	12,67
460,499	12,67
460,852	12,66
461,206	12,67
461,56	12,66
461,914	12,66
462,267	12,68
462,621	12,72
462,974	12,75
463,328	12,8
463,681	12,84
464,035	12,91
464,388	12,94
464,742	12,96
465,095	12,99
465,448	13
465,801	13
466,155	12,98
466,508	12,95
466,861	12,94
467,214	12,93
467,567	12,95
467,92	12,97
468,273	12,98
468,626	12,97
468,979	12,97
469,332	12,97
469,684	12,95
470,037	12,96
470,39	12,99
470,743	13,01
471,095	13,04
471,448	13,09
471,8	13,12
472,153	13,16
472,505	13,16
472,858	13,15
473,21	13,14
473,562	13,16
473,915	13,16
474,267	13,17
474,619	13,14
474,971	13,1
475,324	13,08
475,676	13,08
476,028	13,08
476,38	13,1
476,732	13,11
477,084	13,09
477,436	13,07
477,787	13,04
478,139	13,01
478,491	12,98
478,843	12,91
479,195	12,85
479,546	12,74
479,898	12,59
480,249	12,43
480,601	12,31
480,952	12,26
481,304	12,23
481,655	12,24
482,007	12,25
482,358	12,26
482,709	12,24
483,061	12,22
483,412	12,19
483,763	12,14
484,114	12,1
484,465	12,09
484,816	12,07
485,167	12,07
485,518	12,08
485,869	12,09
486,22	12,09
486,571	12,11
486,922	12,14
487,272	12,17
487,623	12,22
487,974	12,25
488,324	12,23
488,675	12,23
489,025	12,24
489,376	12,24
489,726	12,24
490,077	12,26
490,427	12,29
490,778	12,34
491,128	12,4
491,478	12,44
491,828	12,49
492,179	12,54
492,529	12,55
492,879	12,55
493,229	12,54
493,579	12,55
493,929	12,54
494,279	12,56
494,629	12,6
494,979	12,67
495,328	12,74
495,678	12,84
496,028	12,89
496,378	12,91
496,727	12,92
497,077	12,92
497,426	12,93
497,776	12,91
498,125	12,89
498,475	12,9
498,824	12,91
499,174	12,91
499,523	12,91
499,872	12,93
500,221	12,94
500,571	12,96
500,92	12,97
501,269	12,97
501,618	12,95
501,967	12,95
502,316	12,96
502,665	12,97
503,014	12,96
503,363	12,97
503,711	12,96
504,06	12,97
504,409	12,96
504,758	12,92
505,106	12,92
505,455	12,89
505,803	12,89
506,152	12,88
506,5	12,87
506,849	12,88
507,197	12,86
507,546	12,86
507,894	12,87
508,242	12,88
508,59	12,87
508,939	12,87
509,287	12,86
509,635	12,85
509,983	12,86
510,331	12,89
510,679	12,89
511,027	12,91
511,375	12,94
511,723	12,96
512,07	13
512,418	13,01
512,766	13,05
513,114	13,04
513,461	13,05
513,809	13,04
514,156	13,03
514,504	13,03
514,851	13,02
515,199	12,96
515,546	12,94
515,893	12,94
516,241	12,96
516,588	12,96
516,935	12,96
517,282	12,94
517,63	12,95
517,977	12,95
518,324	12,93
518,671	12,91
519,018	12,92
519,365	12,92
519,711	12,93
520,058	12,93
520,405	12,96
520,752	12,96
521,099	12,99
521,445	13
521,792	13
522,138	12,99
522,485	13
522,832	13
523,178	13,01
523,524	13,01
523,871	13
524,217	12,97
524,563	12,89
524,91	12,77
525,256	12,68
525,602	12,62
525,948	12,6
526,294	12,6
526,64	12,61
526,986	12,61
527,332	12,62
527,678	12,62
528,024	12,62
528,37	12,62
528,716	12,6
529,061	12,61
529,407	12,6
529,753	12,59
530,098	12,57
530,444	12,56
530,789	12,56
531,135	12,58
531,48	12,58
531,826	12,63
532,171	12,69
532,516	12,74
532,862	12,79
533,207	12,8
533,552	12,79
533,897	12,79
534,242	12,78
534,587	12,78
534,932	12,79
535,277	12,8
535,622	12,8
535,967	12,83
536,312	12,85
536,657	12,87
537,001	12,92
537,346	12,92
537,691	12,9
538,035	12,84
538,38	12,81
538,724	12,81
539,069	12,8
539,413	12,81
539,758	12,82
540,102	12,84
540,446	12,86
540,791	12,88
541,135	12,89
541,479	12,89
541,823	12,9
542,167	12,87
542,512	12,88
542,856	12,87
543,2	12,85
543,543	12,84
543,887	12,86
544,231	12,88
544,575	12,92
544,919	12,96
545,262	13,05
545,606	13,1
545,95	13,13
546,293	13,15
546,637	13,16
546,98	13,18
547,324	13,21
547,667	13,26
548,011	13,26
548,354	13,26
548,697	13,27
549,04	13,27
549,384	13,29
549,727	13,26
550,07	13,28
550,413	13,3
550,756	13,32
551,099	13,34
551,442	13,33
551,785	13,35
552,128	13,38
552,47	13,38
552,813	13,37
553,156	13,38
553,499	13,38
553,841	13,38
554,184	13,38
554,526	13,36
554,869	13,33
555,211	13,34
555,554	13,34
555,896	13,32
556,238	13,31
556,581	13,29
556,923	13,29
557,265	13,3
557,607	13,28
557,949	13,28
558,291	13,25
558,633	13,26
558,975	13,24
559,317	13,2
559,659	13,17
560,001	13,17
560,343	13,14
560,685	13,09
561,026	13,08
561,368	13,08
561,71	13,05
562,051	13,02
562,393	12,99
562,734	12,94
563,076	12,92
563,417	12,91
563,759	12,93
564,1	12,92
564,441	12,93
564,782	12,95
565,124	12,93
565,465	12,93
565,806	12,93
566,147	12,91
566,488	12,92
566,829	12,92
567,17	12,9
567,511	12,91
567,851	12,93
568,192	12,89
568,533	12,85
568,874	12,84
569,214	12,84
569,555	12,84
569,895	12,85
570,236	12,85
570,576	12,83
570,917	12,82
571,257	12,79
571,598	12,77
571,938	12,74
572,278	12,74
572,618	12,74
572,959	12,75
573,299	12,75
573,639	12,73
573,979	12,7
574,319	12,68
574,659	12,65
574,999	12,65
575,339	12,65
575,678	12,67
576,018	12,67
576,358	12,67
576,698	12,66
577,037	12,65
577,377	12,65
577,716	12,66
578,056	12,65
578,395	12,68
578,735	12,67
579,074	12,68
579,413	12,68
579,753	12,66
580,092	12,61
580,431	12,62
580,77	12,65
581,109	12,66
581,448	12,67
581,787	12,65
582,126	12,65
582,465	12,67
582,804	12,65
583,143	12,66
583,482	12,65
583,82	12,67
584,159	12,67
584,498	12,67
584,836	12,67
585,175	12,66
585,514	12,66
585,852	12,65
586,19	12,63
586,529	12,61
586,867	12,6
587,205	12,59
587,544	12,58
587,882	12,57
588,22	12,58
588,558	12,58
588,896	12,6
589,234	12,57
589,572	12,57
589,91	12,57
590,248	12,57
590,586	12,58
590,924	12,58
591,262	12,59
591,599	12,58
591,937	12,59
592,275	12,61
592,612	12,6
592,95	12,61
593,287	12,62
593,625	12,62
593,962	12,61
594,299	12,62
594,637	12,63
594,974	12,64
595,311	12,65
595,648	12,66
595,985	12,68
596,322	12,7
596,659	12,74
596,996	12,75
597,333	12,72
597,67	12,72
598,007	12,73
598,344	12,74
598,681	12,77
599,017	12,76
599,354	12,75
599,691	12,76
600,027	12,78
600,364	12,78
600,7	12,81
601,037	12,85
601,373	12,85
601,71	12,87
602,046	12,86
602,382	12,87
602,718	12,88
603,054	12,88
603,391	12,88
603,727	12,88
604,063	12,9
604,399	12,92
604,735	12,92
605,071	12,92
605,406	12,9
605,742	12,91
606,078	12,91
606,414	12,91
606,749	12,91
607,085	12,92
607,421	12,94
607,756	12,95
608,092	12,96
608,427	12,97
608,762	12,96
609,098	12,97
609,433	12,98
609,768	12,97
610,104	12,97
610,439	12,99
610,774	12,97
611,109	12,92
611,444	12,93
611,779	12,94
612,114	12,94
612,449	12,97
612,784	12,97
613,118	13
613,453	13
613,788	13,01
614,123	12,99
614,457	12,97
614,792	12,97
615,126	12,96
615,461	12,98
615,795	12,99
616,13	12,99
616,464	12,98
616,798	12,99
617,132	12,99
617,467	12,98
617,801	12,98
618,135	13,03
618,469	13,05
618,803	13,07
619,137	13,11
619,471	13,15
619,805	13,15
620,139	13,13
620,472	13,15
620,806	13,16
621,14	13,18
621,473	13,21
621,807	13,23
622,141	13,21
622,474	13,15
622,808	13,13
623,141	13,09
623,474	13,06
623,808	13,07
624,141	13,09
624,474	13,12
624,807	13,14
625,141	13,13
625,474	13,15
625,807	13,14
626,14	13,13
626,473	13,11
626,806	13,11
627,138	13,13
627,471	13,13
627,804	13,13
628,137	13,15
628,469	13,14
628,802	13,13
629,135	13,18
629,467	13,21
629,8	13,21
630,132	13,23
630,465	13,27
630,797	13,29
631,129	13,29
631,461	13,28
631,794	13,29
632,126	13,28
632,458	13,3
632,79	13,32
633,122	13,32
633,454	13,32
633,786	13,32
634,118	13,31
634,45	13,34
634,781	13,32
635,113	13,33
635,445	13,36
635,777	13,39
636,108	13,38
636,44	13,39
636,771	13,42
637,103	13,43
637,434	13,47
637,765	13,44
638,097	13,44
638,428	13,41
638,759	13,44
639,09	13,43
639,422	13,4
639,753	13,37
640,084	13,36
640,415	13,39
640,746	13,45
641,077	13,48
641,407	13,46
641,738	13,48
642,069	13,48
642,4	13,46
642,73	13,45
643,061	13,45
643,392	13,48
643,722	13,53
644,053	13,56
644,383	13,54
644,713	13,57
645,044	13,57
645,374	13,59
645,704	13,58
646,034	13,61
646,365	13,6
646,695	13,62
647,025	13,66
647,355	13,65
647,685	13,62
648,015	13,62
648,344	13,62
648,674	13,61
649,004	13,58
649,334	13,6
649,663	13,6
649,993	13,6
650,323	13,59
650,652	13,52
650,982	13,56
651,311	13,58
651,64	13,57
651,97	13,59
652,299	13,59
652,628	13,6
652,958	13,62
653,287	13,69
653,616	13,68
653,945	13,62
654,274	13,6
654,603	13,6
654,932	13,6
655,261	13,59
655,589	13,6
655,918	13,63
656,247	13,64
656,576	13,67
656,904	13,68
657,233	13,69
657,561	13,73
657,89	13,71
658,218	13,71
658,547	13,75
658,875	13,77
659,203	13,79
659,532	13,8
659,86	13,79
660,188	13,76
660,516	13,79
660,844	13,84
661,172	13,88
661,5	13,95
661,828	13,97
662,156	14
662,484	14,04
662,811	14,04
663,139	14,06
663,467	14,03
663,794	14,01
664,122	14,02
664,45	14,02
664,777	14,04
665,104	14,06
665,432	13,98
665,759	13,98
666,086	13,99
666,414	13,96
666,741	13,99
667,068	13,99
667,395	13,99
667,722	13,98
668,049	13,97
668,376	13,95
668,703	13,95
669,03	14,05
669,357	14,06
669,683	14,05
670,01	14,07
670,337	14,11
670,663	14,18
670,99	14,15
671,317	14,17
671,643	14,18
671,969	14,12
672,296	14,18
672,622	14,18
672,948	14,21
673,275	14,23
673,601	14,22
673,927	14,23
674,253	14,21
674,579	14,2
674,905	14,16
675,231	14,15
675,557	14,16
675,883	14,08
676,209	14,08
676,534	14,1
676,86	14,08
677,186	14,09
677,511	14,11
677,837	14,16
678,162	14,16
678,488	14,17
678,813	14,21
679,139	14,2
679,464	14,18
679,789	14,15
680,114	14,17
680,44	14,18
680,765	14,17
681,09	14,13
681,415	14,1
681,74	14,12
682,065	14,12
682,39	14,1
682,714	14,11
683,039	14,1
683,364	14,09
683,689	14,07
684,013	14,03
684,338	13,96
684,662	13,92
684,987	13,91
685,311	13,9
685,636	13,9
685,96	13,89
686,284	13,88
686,608	13,84
686,933	13,81
687,257	13,81
687,581	13,86
687,905	13,91
688,229	13,96
688,553	13,95
688,877	13,93
689,201	13,94
689,524	13,92
689,848	13,97
690,172	13,95
690,496	13,92
690,819	13,92
691,143	13,94
691,466	13,98
691,79	13,94
692,113	13,89
692,436	13,86
692,76	13,83
693,083	13,84
693,406	13,89
693,729	13,86
694,053	13,81
694,376	13,8
694,699	13,76
695,022	13,72
695,344	13,73
695,667	13,79
695,99	13,79
696,313	13,85
696,636	13,83
696,958	13,9
697,281	13,99
697,604	14,03
697,926	14,07
698,249	14,1
698,571	14,12
698,893	14,1
699,216	14,14
699,538	14,15
699,86	14,21
700,182	14,25
700,504	14,29
700,827	14,29
701,149	14,28
701,471	14,26
701,793	14,25
702,114	14,26
702,436	14,21
702,758	14,18
703,08	14,08
703,401	14,04
703,723	13,98
704,045	13,88
704,366	13,84
704,688	13,83
705,009	13,81
705,331	13,84
705,652	13,91
705,973	13,89
706,294	13,91
706,616	13,88
706,937	13,86
707,258	13,8
707,579	13,84
707,9	13,86
708,221	13,94
708,542	13,94
708,863	13,96
709,183	14,03
709,504	14,09
709,825	14,17
710,145	14,21
710,466	14,24
710,787	14,32
711,107	14,39
711,427	14,35
711,748	14,27
712,068	14,26
712,388	14,26
712,709	14,3
713,029	14,29
713,349	14,26
713,669	14,27
713,989	14,34
714,309	14,43
714,629	14,49
714,949	14,51
715,269	14,58
715,589	14,65
715,908	14,63
716,228	14,62
716,548	14,69
716,867	14,71
717,187	14,74
717,506	14,82
717,826	14,82
718,145	14,83
718,465	14,91
718,784	14,91
719,103	14,96
719,422	15
719,741	15,09
720,061	15,17
720,38	15,27
720,699	15,38
721,018	15,4
721,336	15,4
721,655	15,5
721,974	15,67
722,293	15,77
722,612	15,96
722,93	16,06
723,249	16,07
723,567	16,17
723,886	16,18
724,204	16,19
724,523	16,25
724,841	16,36
725,159	16,45
725,477	16,58
725,796	16,67
726,114	16,84
726,432	16,96
726,75	17,12
727,068	17,23
727,386	17,37
727,704	17,5
728,022	17,66
728,339	17,73
728,657	17,77
728,975	17,76
729,292	17,7
729,61	17,76
729,928	17,85
730,245	17,94
730,562	18,11
730,88	18,26
731,197	18,35
731,514	18,46
731,832	18,6
732,149	18,7
732,466	18,77
732,783	18,87
733,1	18,96
733,417	19,02
733,734	19,03
734,051	19,02
734,368	18,98
734,684	19,03
735,001	19,15
735,318	19,22
735,634	19,34
735,951	19,55
736,268	19,65
736,584	19,69
736,9	19,73
737,217	19,74
737,533	19,74
737,849	19,84
738,166	19,99
738,482	20,14
738,798	20,25
739,114	20,39
739,43	20,45
739,746	20,43
740,062	20,48
740,378	20,61
740,693	20,76
741,009	20,94
741,325	21,06
741,641	21,04
741,956	21,06
742,272	21,14
742,587	21,17
742,903	21,29
743,218	21,37
743,533	21,46
743,849	21,59
744,164	21,59
744,479	21,64
744,794	21,71
745,109	21,79
745,424	21,89
745,739	21,95
746,054	21,92
746,369	21,96
746,684	22,05
746,999	22,11
747,313	22,13
747,628	22,15
747,943	22,08
748,257	22,19
748,572	22,36
748,886	22,46
749,201	22,52
749,515	22,49
749,829	22,56
750,144	22,69
750,458	22,71
750,772	22,9
751,086	23,06
751,4	23,07
751,714	22,94
752,028	22,84
752,342	22,76
752,656	22,77
752,97	22,93
753,284	22,95
753,597	22,98
753,911	23,05
754,225	22,97
754,538	23,02
754,852	23,05
755,165	22,96
755,478	22,97
755,792	23,07
756,105	23,16
756,418	23,26
756,731	23,22
757,045	23,18
757,358	23,09
757,671	23,1
757,984	23,17
758,297	23,14
758,609	23,23
758,922	23,3
759,235	23,3
759,548	23,3
759,86	23,21
760,173	23,01
760,486	22,74
760,798	22,57
761,111	22,38
761,423	22,16
761,735	22,1
762,048	22,1
762,36	22,04
762,672	22,08
762,984	22,05
763,296	22,13
763,608	22,3
763,92	22,4
764,232	22,39
764,544	22,44
764,856	22,66
765,168	22,85
765,48	23,06
765,791	23,19
766,103	23,32
766,414	23,46
766,726	23,68
767,037	24,01
767,349	24,45
767,66	25,03
767,972	25,59
768,283	26,08
768,594	26,37
768,905	26,64
769,216	26,8
769,527	27,14
769,838	27,39
770,149	27,43
770,46	27,64
770,771	27,95
771,082	28,1
771,393	28,16
771,703	28,13
772,014	28,26
772,324	28,47
772,635	28,59
772,945	28,9
773,256	29,17
773,566	29,37
773,877	29,51
774,187	29,49
774,497	29,75
774,807	29,93
775,117	29,98
775,427	29,94
775,737	30,19
776,047	30,27
776,357	30,39
776,667	30,67
776,977	30,94
777,287	31,18
777,596	31,21
777,906	31,28
778,216	31,48
778,525	31,55
778,835	31,68
779,144	31,81
779,453	31,76
779,763	31,7
780,072	31,59
780,381	31,74
780,69	31,8
781	31,71
781,309	31,65
781,618	31,82
781,927	32,15
782,235	32,36
782,544	32,64
782,853	32,84
783,162	32,98
783,471	32,81
783,779	32,68
784,088	32,81
784,396	32,86
784,705	32,86
785,013	32,61
785,322	32,44
785,63	32,29
785,938	32,08
786,246	32,01
786,554	32,26
786,863	32,23
787,171	32,15
787,479	32,18
787,787	32,15
788,094	32,22
788,402	32,18
788,71	32,07
789,018	31,85
789,326	31,59
789,633	31,39
789,941	31,46
790,248	31,4
790,556	31,45
790,863	31,53
791,171	31,48
791,478	31,61
791,785	31,72
792,092	31,73
792,399	32,08
792,707	32,43
793,014	32,65
793,321	32,65
793,628	32,91
793,934	32,92
794,241	32,91
794,548	32,79
794,855	32,67
795,161	32,72
795,468	32,65
795,775	32,69
796,081	32,74
796,388	32,78
796,694	32,9
797	32,66
797,307	32,47
797,613	32,35
797,919	32,19
798,225	32,16
798,531	32,22
798,837	32,05
799,143	31,85
799,449	31,51
799,755	31,62
800,061	31,49
800,367	31,42
800,672	31,64
800,978	31,89
801,284	32,06
801,589	31,92
801,895	32,16
802,2	32,46
802,506	32,64
802,811	32,34
803,116	32,07
803,421	32,06
803,727	32,31
804,032	32,59
804,337	32,85
804,642	32,84
804,947	32,79
805,252	32,93
805,556	33,27
805,861	33,79
806,166	33,8
806,471	34,04
806,775	34,55
807,08	34,63
807,384	34,61
807,689	34,72
807,993	34,75
808,298	34,82
808,602	34,93
808,906	35,1
809,211	35,64
809,515	35,93
809,819	36,3
810,123	36,5
810,427	36,62
810,731	36,69
811,035	36,97
811,338	37,37
811,642	37,64
811,946	37,62
812,25	37,5
812,553	37,76
812,857	37,75
813,16	37,34
813,464	37,19
813,767	37,29
814,07	37,34
814,374	37,44
814,677	37,46
814,98	37,63
815,283	37,37
815,586	37,04
815,889	36,83
816,192	36,51
816,495	36,03
816,798	35,63
817,101	35,23
817,404	34,8
817,706	34,34
818,009	33,88
818,312	33,19
818,614	32,04
818,917	30,52
819,219	28,56
819,521	26,7
819,824	25,37
820,126	24,24
820,428	23,37
820,73	22,92
821,032	22,55
821,334	22,18
821,636	22,07
821,938	21,99
822,24	21,95
822,542	22
822,844	22,03
823,145	22,01
823,447	21,95
823,749	21,89
824,05	21,77
824,352	21,66
824,653	21,61
824,955	21,61
825,256	21,64
825,557	21,86
825,858	22,27
826,16	22,6
826,461	23,06
826,762	23,61
827,063	24,09
827,364	24,52
827,665	24,95
827,965	25,39
828,266	25,79
828,567	26,13
828,868	26,34
829,168	26,54
829,469	26,82
829,769	27,21
830,07	27,51
830,37	27,88
830,67	28,19
830,971	28,5
831,271	28,8
831,571	29,08
831,871	29,36
832,171	29,44
832,471	29,58
832,771	29,67
833,071	29,65
833,371	29,64
833,671	29,8
833,971	30,04
834,27	29,83
834,57	29,82
834,869	30,05
835,169	30,23
835,468	30,3
835,768	30,32
836,067	30,41
836,367	30,86
836,666	31,34
836,965	31,88
837,264	32,48
837,563	33,13
837,862	34,12
838,161	34,81
838,46	35,48
838,759	36,21
839,058	36,78
839,356	37,36
839,655	37,87
839,954	38,52
840,252	38,95
840,551	39,71
840,849	40,53
841,148	41,13
841,446	41,6
841,744	42,26
842,043	42,87
842,341	43,28
842,639	43,38
842,937	43,79
843,235	44,41
843,533	44,97
843,831	45,73
844,129	46,79
844,427	47,83
844,724	49,14
845,022	50,43
845,32	51,91
845,617	53,3
845,915	54,62
846,212	55,39
846,51	56,53
846,807	57,27
847,104	57,61
847,402	57,17
847,699	56,99
847,996	56,71
848,293	56,83
848,59	57,25
848,887	57,64
849,184	57,61
849,481	57,92
849,778	58,57
850,074	59,58
850,371	59,16
850,668	58,83
850,964	58,03
851,261	57,39
851,557	57,47
851,854	57,78
852,15	57,98
852,446	58,45
852,743	58,48
853,039	58,93
853,335	59,01
853,631	59,37
853,927	59,95
854,223	60,93
854,519	61,63
854,815	61,92
855,111	62,41
855,406	63,12
855,702	63,2
855,998	62,7
856,293	62,7
856,589	63,2
856,884	63,43
857,18	63,98
857,475	64,26
857,77	63,93
858,066	64,43
858,361	64,56
858,656	64,11
858,951	63,59
859,246	63,24
859,541	63,29
859,836	63,39
860,131	63,76
860,426	63,69
860,72	63,31
861,015	63,05
861,31	62,66
861,604	62,4
861,899	62,76
862,193	63,04
862,487	62,57
862,782	62,18
863,076	62,64
863,37	63,01
863,664	63,8
863,959	64,27
864,253	63,24
864,547	62,67
864,841	62,39
865,135	62,74
865,428	62,67
865,722	62,79
866,016	63,27
866,31	62,4
866,603	61,75
866,897	61,5
867,19	60,92
867,484	60,37
867,777	59,5
868,07	58,91
868,364	59,07
868,657	58,87
868,95	59,04
869,243	58,41
869,536	58,04
869,829	57,16
870,122	56,55
870,415	56,74
870,708	57,11
871	57,48
871,293	58,09
871,586	58,38
871,878	57,95
872,171	57,3
872,463	56,99
872,756	56,66
873,048	55,75
873,341	56
873,633	56,13
873,925	56,88
874,217	56,95
874,509	56,49
874,801	56,7
875,093	56,72
875,385	57,2
875,677	56,84
875,969	57,25
