Data from zc74051_1_Reflection_00005.txt Node
Date: Thu Mar 12 15:03:37 ART 2020
User: Ana
Spectrometer: USB2E3644
Trigger mode: 4
Integration Time (sec): 5,000000E-2
Scans to average: 10
Electric dark correction enabled: true
Nonlinearity correction enabled: false
Boxcar width: 10
XAxis mode: Wavelengths
Number of Pixels in Spectrum: 2048
>>>>>Begin Spectral Data<<<<<
178,315	142,92
178,696	158,56
179,076	203,16
179,457	229,43
179,838	239,1
180,218	349,49
180,599	-636,11
180,979	163,16
181,36	394,44
181,74	202,02
182,121	151,48
182,501	115,16
182,881	109,04
183,262	107,76
183,642	109,43
184,022	112,76
184,402	113,49
184,783	111
185,163	109,16
185,543	109,2
185,923	109,69
186,303	112,06
186,683	115,96
187,063	118,79
187,443	118,42
187,823	114,87
188,203	112,13
188,583	110,36
188,963	107,2
189,343	104,91
189,723	105,07
190,102	105,41
190,482	105,52
190,862	106,16
191,242	107,05
191,621	107,12
192,001	107,3
192,38	107,96
192,76	110,12
193,14	112,22
193,519	113,48
193,898	113,64
194,278	111,86
194,657	109,71
195,037	109,66
195,416	109,77
195,795	110,17
196,175	111,19
196,554	111,02
196,933	111,99
197,312	113,2
197,692	113,21
198,071	113,93
198,45	115
198,829	115,93
199,208	115,96
199,587	116,51
199,966	117,57
200,345	118,37
200,724	118,15
201,103	117,24
201,482	116,35
201,86	115,49
202,239	115,04
202,618	114,9
202,997	115,16
203,375	115,7
203,754	115,87
204,133	115,99
204,511	115,8
204,89	115,48
205,269	114,56
205,647	113,66
206,026	112,5
206,404	111,5
206,782	109,84
207,161	107,85
207,539	105,84
207,918	104,1
208,296	103,44
208,674	103,41
209,052	103,57
209,431	103,7
209,809	104,19
210,187	105,15
210,565	106,34
210,943	106,32
211,321	106,05
211,699	107,16
212,077	107,65
212,455	108,17
212,833	108,29
213,211	108,23
213,589	108,92
213,967	110,09
214,345	110,87
214,722	111,59
215,1	112,84
215,478	114,53
215,855	116,1
216,233	116,42
216,611	116,12
216,988	116,43
217,366	115,96
217,743	115,21
218,121	113,65
218,498	111,43
218,876	110,09
219,253	108,93
219,631	106,45
220,008	105,18
220,385	104,61
220,762	103,88
221,14	103,53
221,517	103,43
221,894	102,95
222,271	102,86
222,648	103,14
223,025	103,19
223,402	103,09
223,78	102,15
224,157	101,25
224,533	101,86
224,91	102,59
225,287	104,59
225,664	106,91
226,041	110,13
226,418	113,42
226,795	115,45
227,171	116,97
227,548	119,22
227,925	120,25
228,301	120,88
228,678	121,3
229,055	121,69
229,431	122,24
229,808	123,51
230,184	124,18
230,561	125,51
230,937	126,68
231,313	127,93
231,69	129,94
232,066	133,38
232,442	135,76
232,819	137,47
233,195	138,19
233,571	138,82
233,947	138,13
234,323	137,86
234,699	139,19
235,075	140,64
235,451	142,81
235,827	145,87
236,203	149,36
236,579	153,95
236,955	158,84
237,331	162,64
237,707	167,6
238,083	175,58
238,459	185,11
238,834	201,38
239,21	223,73
239,586	250,13
239,961	271,88
240,337	288,63
240,713	301,18
241,088	314,87
241,464	327,65
241,839	345,21
242,215	375,47
242,59	459,16
242,965	809,19
243,341	-4319,89
243,716	-532,6
244,091	-304,88
244,467	-229,39
244,842	-188,64
245,217	-162,19
245,592	-148,74
245,967	-145,65
246,343	-141,09
246,718	-138,05
247,093	-141,21
247,468	-145,7
247,843	-145,04
248,218	-138,11
248,593	-125,32
248,967	-113,93
249,342	-107,64
249,717	-104,58
250,092	-102,66
250,467	-104,64
250,841	-113,99
251,216	-134,16
251,591	-165,81
251,965	-201,77
252,34	-236,3
252,714	-280,24
253,089	-335,79
253,463	-380,96
253,838	-383,77
254,212	-374,76
254,587	-341,02
254,961	-275,3
255,335	-215,3
255,71	-165,26
256,084	-119,73
256,458	-91,31
256,832	-75,41
257,206	-66,69
257,581	-61,83
257,955	-59,07
258,329	-56,63
258,703	-53,61
259,077	-51,22
259,451	-49,26
259,825	-48,79
260,199	-49,39
260,572	-49,13
260,946	-49,16
261,32	-48,97
261,694	-48,42
262,068	-48,26
262,441	-47,89
262,815	-48,04
263,189	-47,63
263,562	-48,37
263,936	-51,6
264,309	-57,73
264,683	-64,53
265,056	-68,47
265,43	-69,97
265,803	-69,44
266,176	-67,73
266,55	-66,38
266,923	-64,77
267,296	-62,62
267,67	-59,16
268,043	-55,82
268,416	-51,96
268,789	-48,03
269,162	-44,76
269,535	-42,33
269,908	-40,37
270,281	-39,08
270,654	-38,6
271,027	-38,92
271,4	-38,79
271,773	-38,78
272,146	-38,36
272,519	-37,91
272,891	-37,77
273,264	-37,77
273,637	-37,63
274,01	-37,55
274,382	-38,35
274,755	-38,77
275,127	-39,25
275,5	-39,58
275,872	-39,73
276,245	-40,43
276,617	-41,55
276,99	-42,36
277,362	-42,95
277,734	-42,93
278,107	-42,59
278,479	-41,76
278,851	-40,85
279,223	-40,5
279,596	-39,83
279,968	-39,35
280,34	-38,74
280,712	-37,93
281,084	-36,5
281,456	-34,89
281,828	-33,01
282,2	-30,45
282,572	-28,67
282,944	-27,39
283,315	-26,79
283,687	-26,15
284,059	-25,79
284,431	-25,31
284,802	-24,6
285,174	-24,04
285,546	-23,6
285,917	-23,1
286,289	-22,74
286,66	-22,51
287,032	-22,16
287,403	-21,97
287,775	-21,94
288,146	-22,18
288,518	-22,47
288,889	-22,62
289,26	-22,92
289,632	-23,7
290,003	-24,74
290,374	-25,35
290,745	-25,57
291,116	-25,5
291,487	-25,46
291,858	-25,24
292,229	-25,16
292,6	-24,95
292,971	-24,23
293,342	-23,55
293,713	-22,88
294,084	-22,18
294,455	-21,3
294,826	-20,7
295,196	-20,38
295,567	-20,37
295,938	-19,98
296,308	-19,42
296,679	-19
297,05	-18,54
297,42	-17,96
297,791	-17,23
298,161	-16,88
298,532	-16,5
298,902	-16,19
299,272	-15,95
299,643	-15,69
300,013	-15,18
300,383	-14,77
300,754	-14,8
301,124	-15,03
301,494	-15,21
301,864	-15,44
302,234	-15,72
302,604	-15,81
302,974	-15,77
303,344	-15,45
303,714	-15,13
304,084	-14,7
304,454	-14,34
304,824	-14,16
305,194	-14,11
305,563	-14,2
305,933	-14,07
306,303	-13,92
306,673	-13,54
307,042	-12,96
307,412	-12,35
307,781	-11,76
308,151	-11,4
308,521	-11,08
308,89	-10,6
309,259	-10,44
309,629	-10,37
309,998	-10,28
310,368	-10,28
310,737	-10,21
311,106	-10,23
311,475	-10,18
311,845	-10,35
312,214	-10,47
312,583	-10,51
312,952	-10,52
313,321	-10,48
313,69	-10,25
314,059	-10,15
314,428	-10,2
314,797	-10,4
315,166	-10,7
315,535	-11,17
315,904	-11,68
316,272	-12,05
316,641	-12,45
317,01	-12,46
317,379	-12,32
317,747	-12,18
318,116	-11,94
318,484	-11,74
318,853	-11,55
319,221	-11,44
319,59	-11,36
319,958	-11,21
320,327	-10,94
320,695	-10,68
321,063	-10,34
321,432	-10,07
321,8	-9,75
322,168	-9,62
322,536	-9,54
322,905	-9,11
323,273	-8,68
323,641	-8,24
324,009	-7,81
324,377	-7,45
324,745	-7,16
325,113	-6,83
325,481	-6,54
325,849	-6,37
326,216	-6,24
326,584	-6
326,952	-5,74
327,32	-5,35
327,687	-5,02
328,055	-4,71
328,423	-4,53
328,79	-4,52
329,158	-4,58
329,525	-4,64
329,893	-4,59
330,26	-4,46
330,628	-4,42
330,995	-4,38
331,362	-4,39
331,73	-4,43
332,097	-4,36
332,464	-4,28
332,831	-4,15
333,199	-4,05
333,566	-3,86
333,933	-3,65
334,3	-3,51
334,667	-3,49
335,034	-3,51
335,401	-3,54
335,768	-3,58
336,135	-3,51
336,502	-3,34
336,868	-3,16
337,235	-2,99
337,602	-2,75
337,969	-2,51
338,335	-2,29
338,702	-2,06
339,069	-1,87
339,435	-1,72
339,802	-1,51
340,168	-1,35
340,535	-1,25
340,901	-1,26
341,267	-1,23
341,634	-1,09
342	-0,95
342,366	-0,77
342,733	-0,64
343,099	-0,46
343,465	-0,36
343,831	-0,26
344,197	-0,15
344,563	-0,1
344,929	-0,09
345,295	0,01
345,661	0,12
346,027	0,18
346,393	0,24
346,759	0,35
347,125	0,43
347,491	0,43
347,856	0,42
348,222	0,45
348,588	0,67
348,953	0,81
349,319	0,79
349,684	0,85
350,05	0,93
350,415	1,06
350,781	1,13
351,146	1,29
351,512	1,4
351,877	1,43
352,242	1,5
352,608	1,63
352,973	1,72
353,338	1,82
353,703	1,94
354,068	2
354,433	2,06
354,798	2,14
355,164	2,2
355,528	2,27
355,893	2,3
356,258	2,25
356,623	2,29
356,988	2,42
357,353	2,54
357,718	2,62
358,082	2,69
358,447	2,73
358,812	2,84
359,176	2,95
359,541	3,1
359,905	3,22
360,27	3,3
360,634	3,33
360,999	3,36
361,363	3,38
361,728	3,47
362,092	3,55
362,456	3,6
362,821	3,69
363,185	3,81
363,549	3,96
363,913	4,07
364,277	4,16
364,641	4,24
365,005	4,31
365,369	4,38
365,733	4,47
366,097	4,55
366,461	4,55
366,825	4,59
367,189	4,63
367,553	4,74
367,916	4,88
368,28	5,04
368,644	5,15
369,007	5,24
369,371	5,32
369,734	5,41
370,098	5,54
370,461	5,65
370,825	5,7
371,188	5,74
371,552	5,81
371,915	5,87
372,278	5,96
372,642	6,04
373,005	6,19
373,368	6,34
373,731	6,48
374,094	6,62
374,457	6,69
374,82	6,8
375,183	6,82
375,546	6,89
375,909	6,96
376,272	7,06
376,635	7,16
376,998	7,26
377,361	7,36
377,723	7,44
378,086	7,51
378,449	7,59
378,811	7,67
379,174	7,77
379,537	7,86
379,899	7,9
380,262	7,95
380,624	7,97
380,987	8
381,349	8,07
381,711	8,14
382,074	8,23
382,436	8,31
382,798	8,49
383,16	8,57
383,522	8,62
383,884	8,67
384,247	8,72
384,609	8,77
384,971	8,81
385,333	8,86
385,695	8,92
386,056	8,97
386,418	8,99
386,78	9,01
387,142	9,08
387,504	9,14
387,865	9,22
388,227	9,28
388,589	9,31
388,95	9,34
389,312	9,34
389,673	9,39
390,035	9,44
390,396	9,41
390,758	9,4
391,119	9,43
391,48	9,44
391,842	9,47
392,203	9,5
392,564	9,55
392,925	9,6
393,286	9,61
393,648	9,64
394,009	9,7
394,37	9,72
394,731	9,74
395,092	9,76
395,452	9,77
395,813	9,79
396,174	9,81
396,535	9,81
396,896	9,85
397,257	9,89
397,617	9,92
397,978	9,95
398,338	9,98
398,699	10,02
399,06	10,09
399,42	10,1
399,781	10,09
400,141	10,05
400,501	10,02
400,862	10,05
401,222	10,07
401,582	10,08
401,943	10,12
402,303	10,15
402,663	10,17
403,023	10,19
403,383	10,2
403,743	10,2
404,103	10,22
404,463	10,26
404,823	10,3
405,183	10,31
405,543	10,34
405,903	10,32
406,262	10,32
406,622	10,29
406,982	10,31
407,342	10,37
407,701	10,43
408,061	10,46
408,42	10,51
408,78	10,53
409,139	10,54
409,499	10,55
409,858	10,56
410,217	10,57
410,577	10,58
410,936	10,59
411,295	10,59
411,655	10,57
412,014	10,54
412,373	10,49
412,732	10,45
413,091	10,43
413,45	10,42
413,809	10,39
414,168	10,37
414,527	10,35
414,886	10,29
415,245	10,23
415,603	10,19
415,962	10,14
416,321	10,13
416,679	10,1
417,038	10,05
417,397	10,01
417,755	9,96
418,114	9,95
418,472	9,93
418,831	9,92
419,189	9,92
419,547	9,9
419,906	9,9
420,264	9,88
420,622	9,85
420,981	9,83
421,339	9,82
421,697	9,81
422,055	9,81
422,413	9,83
422,771	9,85
423,129	9,87
423,487	9,89
423,845	9,9
424,203	9,92
424,56	9,96
424,918	10
425,276	10,06
425,634	10,08
425,991	10,11
426,349	10,15
426,707	10,19
427,064	10,25
427,422	10,27
427,779	10,33
428,137	10,39
428,494	10,48
428,851	10,52
429,209	10,54
429,566	10,54
429,923	10,53
430,28	10,52
430,637	10,54
430,995	10,56
431,352	10,55
431,709	10,54
432,066	10,54
432,423	10,52
432,78	10,49
433,137	10,49
433,493	10,49
433,85	10,5
434,207	10,47
434,564	10,44
434,92	10,43
435,277	10,4
435,634	10,4
435,99	10,37
436,347	10,35
436,703	10,37
437,06	10,37
437,416	10,38
437,773	10,38
438,129	10,35
438,485	10,35
438,841	10,34
439,198	10,34
439,554	10,33
439,91	10,35
440,266	10,36
440,622	10,36
440,978	10,36
441,334	10,33
441,69	10,32
442,046	10,3
442,402	10,29
442,758	10,3
443,113	10,28
443,469	10,28
443,825	10,28
444,181	10,26
444,536	10,27
444,892	10,27
445,247	10,28
445,603	10,31
445,958	10,33
446,314	10,33
446,669	10,35
447,025	10,36
447,38	10,36
447,735	10,37
448,09	10,37
448,446	10,38
448,801	10,41
449,156	10,44
449,511	10,46
449,866	10,5
450,221	10,53
450,576	10,58
450,931	10,62
451,286	10,67
451,641	10,72
451,995	10,75
452,35	10,79
452,705	10,8
453,06	10,79
453,414	10,78
453,769	10,8
454,123	10,81
454,478	10,81
454,832	10,83
455,187	10,8
455,541	10,81
455,896	10,79
456,25	10,77
456,604	10,73
456,958	10,72
457,313	10,7
457,667	10,69
458,021	10,69
458,375	10,7
458,729	10,71
459,083	10,73
459,437	10,74
459,791	10,73
460,145	10,72
460,499	10,72
460,852	10,71
461,206	10,72
461,56	10,73
461,914	10,74
462,267	10,73
462,621	10,76
462,974	10,75
463,328	10,76
463,681	10,77
464,035	10,83
464,388	10,88
464,742	10,9
465,095	10,9
465,448	10,9
465,801	10,88
466,155	10,88
466,508	10,87
466,861	10,83
467,214	10,84
467,567	10,83
467,92	10,86
468,273	10,86
468,626	10,85
468,979	10,83
469,332	10,82
469,684	10,83
470,037	10,84
470,39	10,86
470,743	10,87
471,095	10,87
471,448	10,87
471,8	10,85
472,153	10,86
472,505	10,89
472,858	10,91
473,21	10,93
473,562	10,94
473,915	10,94
474,267	10,96
474,619	10,96
474,971	10,97
475,324	10,97
475,676	10,99
476,028	11,01
476,38	11,02
476,732	11,04
477,084	11,01
477,436	11
477,787	10,99
478,139	10,98
478,491	10,99
478,843	10,99
479,195	10,99
479,546	10,95
479,898	10,87
480,249	10,84
480,601	10,81
480,952	10,77
481,304	10,75
481,655	10,74
482,007	10,71
482,358	10,69
482,709	10,67
483,061	10,65
483,412	10,64
483,763	10,64
484,114	10,63
484,465	10,62
484,816	10,6
485,167	10,59
485,518	10,6
485,869	10,59
486,22	10,58
486,571	10,57
486,922	10,58
487,272	10,59
487,623	10,59
487,974	10,59
488,324	10,6
488,675	10,61
489,025	10,61
489,376	10,62
489,726	10,64
490,077	10,66
490,427	10,68
490,778	10,69
491,128	10,7
491,478	10,71
491,828	10,74
492,179	10,79
492,529	10,82
492,879	10,82
493,229	10,85
493,579	10,87
493,929	10,88
494,279	10,91
494,629	10,93
494,979	10,96
495,328	10,98
495,678	11,02
496,028	11,05
496,378	11,08
496,727	11,11
497,077	11,12
497,426	11,13
497,776	11,11
498,125	11,1
498,475	11,11
498,824	11,14
499,174	11,12
499,523	11,13
499,872	11,14
500,221	11,16
500,571	11,16
500,92	11,16
501,269	11,18
501,618	11,19
501,967	11,17
502,316	11,17
502,665	11,17
503,014	11,17
503,363	11,16
503,711	11,17
504,06	11,17
504,409	11,19
504,758	11,2
505,106	11,21
505,455	11,22
505,803	11,21
506,152	11,2
506,5	11,2
506,849	11,19
507,197	11,19
507,546	11,19
507,894	11,18
508,242	11,17
508,59	11,16
508,939	11,14
509,287	11,16
509,635	11,16
509,983	11,18
510,331	11,18
510,679	11,19
511,027	11,19
511,375	11,19
511,723	11,19
512,07	11,19
512,418	11,21
512,766	11,23
513,114	11,25
513,461	11,27
513,809	11,28
514,156	11,26
514,504	11,26
514,851	11,26
515,199	11,27
515,546	11,27
515,893	11,28
516,241	11,28
516,588	11,28
516,935	11,28
517,282	11,28
517,63	11,3
517,977	11,29
518,324	11,3
518,671	11,31
519,018	11,32
519,365	11,32
519,711	11,32
520,058	11,33
520,405	11,33
520,752	11,33
521,099	11,35
521,445	11,39
521,792	11,39
522,138	11,4
522,485	11,39
522,832	11,39
523,178	11,4
523,524	11,41
523,871	11,4
524,217	11,41
524,563	11,4
524,91	11,39
525,256	11,35
525,602	11,33
525,948	11,31
526,294	11,29
526,64	11,28
526,986	11,25
527,332	11,23
527,678	11,22
528,024	11,21
528,37	11,22
528,716	11,21
529,061	11,22
529,407	11,23
529,753	11,24
530,098	11,24
530,444	11,23
530,789	11,22
531,135	11,21
531,48	11,2
531,826	11,2
532,171	11,19
532,516	11,21
532,862	11,22
533,207	11,23
533,552	11,25
533,897	11,27
534,242	11,29
534,587	11,31
534,932	11,32
535,277	11,32
535,622	11,31
535,967	11,32
536,312	11,33
536,657	11,31
537,001	11,34
537,346	11,36
537,691	11,36
538,035	11,37
538,38	11,38
538,724	11,38
539,069	11,37
539,413	11,37
539,758	11,37
540,102	11,37
540,446	11,37
540,791	11,36
541,135	11,34
541,479	11,36
541,823	11,36
542,167	11,35
542,512	11,37
542,856	11,36
543,2	11,34
543,543	11,33
543,887	11,34
544,231	11,33
544,575	11,33
544,919	11,34
545,262	11,36
545,606	11,38
545,95	11,38
546,293	11,39
546,637	11,42
546,98	11,42
547,324	11,43
547,667	11,47
548,011	11,49
548,354	11,52
548,697	11,51
549,04	11,5
549,384	11,51
549,727	11,5
550,07	11,51
550,413	11,5
550,756	11,52
551,099	11,51
551,442	11,51
551,785	11,5
552,128	11,51
552,47	11,5
552,813	11,47
553,156	11,47
553,499	11,48
553,841	11,45
554,184	11,46
554,526	11,45
554,869	11,41
555,211	11,39
555,554	11,38
555,896	11,36
556,238	11,37
556,581	11,35
556,923	11,32
557,265	11,32
557,607	11,33
557,949	11,31
558,291	11,28
558,633	11,26
558,975	11,25
559,317	11,23
559,659	11,21
560,001	11,19
560,343	11,18
560,685	11,15
561,026	11,15
561,368	11,15
561,71	11,11
562,051	11,09
562,393	11,09
562,734	11,03
563,076	11,01
563,417	10,98
563,759	11,01
564,1	10,99
564,441	10,97
564,782	10,93
565,124	10,92
565,465	10,9
565,806	10,88
566,147	10,87
566,488	10,84
566,829	10,82
567,17	10,82
567,511	10,79
567,851	10,79
568,192	10,77
568,533	10,74
568,874	10,76
569,214	10,74
569,555	10,72
569,895	10,73
570,236	10,71
570,576	10,67
570,917	10,63
571,257	10,62
571,598	10,59
571,938	10,59
572,278	10,58
572,618	10,59
572,959	10,58
573,299	10,6
573,639	10,6
573,979	10,58
574,319	10,58
574,659	10,58
574,999	10,58
575,339	10,57
575,678	10,56
576,018	10,52
576,358	10,51
576,698	10,48
577,037	10,46
577,377	10,45
577,716	10,44
578,056	10,41
578,395	10,4
578,735	10,39
579,074	10,37
579,413	10,34
579,753	10,3
580,092	10,27
580,431	10,23
580,77	10,2
581,109	10,2
581,448	10,15
581,787	10,11
582,126	10,11
582,465	10,08
582,804	10,06
583,143	10,07
583,482	10,08
583,82	10,07
584,159	10,06
584,498	10,09
584,836	10,09
585,175	10,08
585,514	10,07
585,852	10,07
586,19	10,08
586,529	10,06
586,867	10,1
587,205	10,08
587,544	10,06
587,882	10,06
588,22	10,04
588,558	10,06
588,896	10,09
589,234	10,08
589,572	10,08
589,91	10,09
590,248	10,04
590,586	10,01
590,924	10,03
591,262	10,04
591,599	10,01
591,937	10,01
592,275	10,02
592,612	10,02
592,95	10,04
593,287	10,04
593,625	10,05
593,962	10,07
594,299	10,13
594,637	10,19
594,974	10,22
595,311	10,23
595,648	10,23
595,985	10,23
596,322	10,21
596,659	10,22
596,996	10,22
597,333	10,22
597,67	10,22
598,007	10,2
598,344	10,21
598,681	10,24
599,017	10,25
599,354	10,25
599,691	10,25
600,027	10,23
600,364	10,23
600,7	10,26
601,037	10,27
601,373	10,28
601,71	10,25
602,046	10,26
602,382	10,28
602,718	10,3
603,054	10,31
603,391	10,32
603,727	10,32
604,063	10,34
604,399	10,36
604,735	10,39
605,071	10,39
605,406	10,4
605,742	10,4
606,078	10,41
606,414	10,47
606,749	10,47
607,085	10,48
607,421	10,52
607,756	10,52
608,092	10,48
608,427	10,46
608,762	10,43
609,098	10,4
609,433	10,36
609,768	10,34
610,104	10,31
610,439	10,3
610,774	10,3
611,109	10,26
611,444	10,23
611,779	10,21
612,114	10,21
612,449	10,2
612,784	10,17
613,118	10,15
613,453	10,07
613,788	10,05
614,123	10,02
614,457	9,93
614,792	9,87
615,126	9,87
615,461	9,85
615,795	9,86
616,13	9,83
616,464	9,83
616,798	9,82
617,132	9,82
617,467	9,79
617,801	9,78
618,135	9,77
618,469	9,78
618,803	9,81
619,137	9,79
619,471	9,76
619,805	9,76
620,139	9,76
620,472	9,78
620,806	9,8
621,14	9,81
621,473	9,79
621,807	9,78
622,141	9,75
622,474	9,73
622,808	9,72
623,141	9,75
623,474	9,78
623,808	9,81
624,141	9,86
624,474	9,92
624,807	9,93
625,141	9,97
625,474	9,99
625,807	10,01
626,14	10,01
626,473	10,02
626,806	10,02
627,138	10,04
627,471	10,01
627,804	10
628,137	10,03
628,469	10,06
628,802	10,09
629,135	10,11
629,467	10,14
629,8	10,13
630,132	10,11
630,465	10,11
630,797	10,07
631,129	10,04
631,461	10,04
631,794	10,07
632,126	10,08
632,458	10,07
632,79	10,06
633,122	10,09
633,454	10,08
633,786	10,07
634,118	10,04
634,45	10,06
634,781	10,05
635,113	10,05
635,445	10,06
635,777	10,06
636,108	10,04
636,44	10,02
636,771	10,03
637,103	10,01
637,434	10
637,765	9,99
638,097	9,96
638,428	9,92
638,759	9,84
639,09	9,82
639,422	9,82
639,753	9,81
640,084	9,78
640,415	9,79
640,746	9,83
641,077	9,85
641,407	9,81
641,738	9,8
642,069	9,78
642,4	9,73
642,73	9,7
643,061	9,71
643,392	9,71
643,722	9,71
644,053	9,73
644,383	9,75
644,713	9,79
645,044	9,81
645,374	9,84
645,704	9,87
646,034	9,84
646,365	9,83
646,695	9,85
647,025	9,9
647,355	9,88
647,685	9,87
648,015	9,89
648,344	9,88
648,674	9,91
649,004	9,92
649,334	9,94
649,663	9,97
649,993	9,98
650,323	10,03
650,652	10,02
650,982	10,02
651,311	10,01
651,64	10
651,97	10,04
652,299	10,04
652,628	10,05
652,958	10,08
653,287	10,11
653,616	10,09
653,945	10,07
654,274	10,09
654,603	10,1
654,932	10,1
655,261	10,15
655,589	10,18
655,918	10,24
656,247	10,32
656,576	10,36
656,904	10,45
657,233	10,49
657,561	10,51
657,89	10,55
658,218	10,59
658,547	10,63
658,875	10,65
659,203	10,66
659,532	10,65
659,86	10,66
660,188	10,65
660,516	10,67
660,844	10,7
661,172	10,72
661,5	10,75
661,828	10,75
662,156	10,74
662,484	10,73
662,811	10,71
663,139	10,66
663,467	10,66
663,794	10,59
664,122	10,55
664,45	10,55
664,777	10,52
665,104	10,51
665,432	10,49
665,759	10,47
666,086	10,46
666,414	10,48
666,741	10,49
667,068	10,51
667,395	10,49
667,722	10,47
668,049	10,46
668,376	10,48
668,703	10,47
669,03	10,48
669,357	10,47
669,683	10,44
670,01	10,4
670,337	10,35
670,663	10,31
670,99	10,3
671,317	10,29
671,643	10,28
671,969	10,28
672,296	10,27
672,622	10,3
672,948	10,28
673,275	10,24
673,601	10,21
673,927	10,16
674,253	10,15
674,579	10,13
674,905	10,08
675,231	10,02
675,557	10,03
675,883	10,01
676,209	9,96
676,534	9,96
676,86	10,03
677,186	10,07
677,511	10,1
677,837	10,16
678,162	10,21
678,488	10,26
678,813	10,3
679,139	10,33
679,464	10,31
679,789	10,33
680,114	10,37
680,44	10,38
680,765	10,42
681,09	10,43
681,415	10,43
681,74	10,43
682,065	10,48
682,39	10,49
682,714	10,49
683,039	10,51
683,364	10,56
683,689	10,5
684,013	10,46
684,338	10,49
684,662	10,46
684,987	10,44
685,311	10,42
685,636	10,39
685,96	10,37
686,284	10,36
686,608	10,31
686,933	10,31
687,257	10,3
687,581	10,31
687,905	10,31
688,229	10,34
688,553	10,34
688,877	10,28
689,201	10,3
689,524	10,35
689,848	10,42
690,172	10,44
690,496	10,47
690,819	10,49
691,143	10,48
691,466	10,47
691,79	10,43
692,113	10,38
692,436	10,33
692,76	10,33
693,083	10,32
693,406	10,33
693,729	10,3
694,053	10,3
694,376	10,29
694,699	10,32
695,022	10,36
695,344	10,44
695,667	10,56
695,99	10,66
696,313	10,72
696,636	10,79
696,958	10,84
697,281	10,93
697,604	10,97
697,926	10,97
698,249	11
698,571	11,01
698,893	11,03
699,216	11,03
699,538	11
699,86	11,05
700,182	11,11
700,504	11,15
700,827	11,14
701,149	11,12
701,471	11,08
701,793	11,01
702,114	10,99
702,436	10,86
702,758	10,69
703,08	10,56
703,401	10,46
703,723	10,35
704,045	10,25
704,366	10,23
704,688	10,21
705,009	10,23
705,331	10,29
705,652	10,33
705,973	10,39
706,294	10,41
706,616	10,37
706,937	10,35
707,258	10,31
707,579	10,32
707,9	10,38
708,221	10,44
708,542	10,55
708,863	10,55
709,183	10,62
709,504	10,74
709,825	10,81
710,145	10,83
710,466	10,86
710,787	10,9
711,107	10,97
711,427	10,98
711,748	10,98
712,068	10,96
712,388	11,03
712,709	11,12
713,029	11,19
713,349	11,2
713,669	11,23
713,989	11,28
714,309	11,36
714,629	11,44
714,949	11,5
715,269	11,48
715,589	11,47
715,908	11,47
716,228	11,42
716,548	11,45
716,867	11,42
717,187	11,43
717,506	11,49
717,826	11,44
718,145	11,47
718,465	11,53
718,784	11,56
719,103	11,53
719,422	11,45
719,741	11,47
720,061	11,51
720,38	11,56
720,699	11,65
721,018	11,72
721,336	11,78
721,655	11,84
721,974	11,99
722,293	12,17
722,612	12,34
722,93	12,54
723,249	12,65
723,567	12,82
723,886	12,94
724,204	12,99
724,523	13,21
724,841	13,38
725,159	13,48
725,477	13,63
725,796	13,7
726,114	13,86
726,432	14,01
726,75	14,17
727,068	14,37
727,386	14,59
727,704	14,76
728,022	14,85
728,339	14,93
728,657	14,98
728,975	15,11
729,292	15,25
729,61	15,33
729,928	15,41
730,245	15,54
730,562	15,7
730,88	15,85
731,197	15,98
731,514	16,06
731,832	16,1
732,149	16,2
732,466	16,39
732,783	16,44
733,1	16,51
733,417	16,69
733,734	16,73
734,051	16,7
734,368	16,69
734,684	16,8
735,001	16,93
735,318	17,07
735,634	17,13
735,951	17,2
736,268	17,3
736,584	17,41
736,9	17,42
737,217	17,41
737,533	17,43
737,849	17,41
738,166	17,5
738,482	17,68
738,798	17,77
739,114	17,89
739,43	18,09
739,746	18,19
740,062	18,29
740,378	18,46
740,693	18,68
741,009	18,88
741,325	18,96
741,641	18,95
741,956	18,98
742,272	19,06
742,587	19,13
742,903	19,22
743,218	19,29
743,533	19,44
743,849	19,55
744,164	19,59
744,479	19,71
744,794	19,89
745,109	20
745,424	20,07
745,739	20,1
746,054	20,13
746,369	20,13
746,684	20,13
746,999	20,1
747,313	19,98
747,628	19,88
747,943	19,87
748,257	20,04
748,572	20,19
748,886	20,17
749,201	20,25
749,515	20,23
749,829	20,32
750,144	20,42
750,458	20,59
750,772	20,76
751,086	20,9
751,4	21,01
751,714	21,04
752,028	21,06
752,342	21,12
752,656	21,12
752,97	21,27
753,284	21,35
753,597	21,5
753,911	21,68
754,225	21,8
754,538	21,88
754,852	21,96
755,165	22
755,478	22,18
755,792	22,23
756,105	22,34
756,418	22,45
756,731	22,46
757,045	22,42
757,358	22,53
757,671	22,6
757,984	22,63
758,297	22,66
758,609	22,77
758,922	22,83
759,235	22,9
759,548	22,81
759,86	22,61
760,173	22,36
760,486	22,21
760,798	22,12
761,111	21,99
761,423	21,84
761,735	21,79
762,048	21,81
762,36	21,84
762,672	21,93
762,984	22,01
763,296	22,09
763,608	22,17
763,92	22,13
764,232	22,16
764,544	22,2
764,856	22,42
765,168	22,55
765,48	22,65
765,791	22,8
766,103	23
766,414	23,34
766,726	23,72
767,037	24,09
767,349	24,54
767,66	25,11
767,972	25,63
768,283	26,1
768,594	26,41
768,905	26,75
769,216	27,06
769,527	27,28
769,838	27,57
770,149	27,88
770,46	28,16
770,771	28,28
771,082	28,42
771,393	28,44
771,703	28,73
772,014	29,03
772,324	29,21
772,635	29,39
772,945	29,53
773,256	29,61
773,566	29,77
773,877	29,84
774,187	29,9
774,497	30,02
774,807	30,19
775,117	30,32
775,427	30,25
775,737	30,24
776,047	30,25
776,357	30,32
776,667	30,48
776,977	30,69
777,287	30,86
777,596	30,89
777,906	30,92
778,216	30,84
778,525	30,83
778,835	30,84
779,144	31,38
779,453	31,67
779,763	31,82
780,072	31,96
780,381	32,28
780,69	32,33
781	32,36
781,309	32,3
781,618	32,33
781,927	32,55
782,235	32,83
782,544	33,22
782,853	33,58
783,162	33,61
783,471	33,54
783,779	33,61
784,088	33,91
784,396	34,09
784,705	34,15
785,013	34,18
785,322	34,18
785,63	33,73
785,938	33,36
786,246	33,31
786,554	33,31
786,863	33,17
787,171	33,21
787,479	33,41
787,787	33,52
788,094	33,57
788,402	33,44
788,71	33,48
789,018	33,51
789,326	33,31
789,633	33,32
789,941	33,63
790,248	33,74
790,556	33,78
790,863	33,94
791,171	34,08
791,478	34,17
791,785	34,36
792,092	34,32
792,399	34,48
792,707	34,56
793,014	34,49
793,321	34,54
793,628	34,67
793,934	34,56
794,241	34,48
794,548	34,33
794,855	34,35
795,161	34,19
795,468	33,79
795,775	33,78
796,081	33,9
796,388	33,83
796,694	33,73
797	33,61
797,307	33,6
797,613	33,57
797,919	33,62
798,225	33,71
798,531	33,87
798,837	33,94
799,143	34,02
799,449	34,02
799,755	33,97
800,061	33,93
800,367	34,12
800,672	34,41
800,978	34,87
801,284	35,32
801,589	35,44
801,895	35,74
802,2	36,03
802,506	36,12
802,811	36,07
803,116	36,14
803,421	36,23
803,727	36,16
804,032	36,12
804,337	36,01
804,642	36,04
804,947	35,96
805,252	35,85
805,556	35,88
805,861	36,03
806,166	36,06
806,471	36,06
806,775	36,12
807,08	36,01
807,384	35,99
807,689	36,06
807,993	36,24
808,298	36,4
808,602	36,29
808,906	36,36
809,211	36,64
809,515	36,97
809,819	37,29
810,123	37,63
810,427	37,96
810,731	38,21
811,035	38,35
811,338	38,57
811,642	38,75
811,946	38,73
812,25	38,9
812,553	39,13
812,857	39,42
813,16	39,48
813,464	39,56
813,767	39,34
814,07	39,16
814,374	39,14
814,677	38,96
814,98	38,96
815,283	38,81
815,586	38,55
815,889	38,45
816,192	38,2
816,495	37,63
816,798	37,4
817,101	37,15
817,404	36,74
817,706	36,36
818,009	35,88
818,312	35,13
818,614	33,99
818,917	32,32
819,219	30,03
819,521	28,13
819,824	26,66
820,126	25,54
820,428	24,72
820,73	24,28
821,032	23,92
821,334	23,59
821,636	23,37
821,938	23,23
822,24	23,19
822,542	23,12
822,844	23,15
823,145	23,02
823,447	22,91
823,749	22,84
824,05	22,79
824,352	22,73
824,653	22,72
824,955	22,71
825,256	22,77
825,557	23,01
825,858	23,35
826,16	23,75
826,461	24,28
826,762	24,84
827,063	25,25
827,364	25,67
827,665	26,14
827,965	26,6
828,266	27,09
828,567	27,3
828,868	27,55
829,168	27,81
829,469	28,11
829,769	28,42
830,07	28,75
830,37	29,07
830,67	29,53
830,971	29,93
831,271	30,35
831,571	30,84
831,871	31,24
832,171	31,26
832,471	31,27
832,771	31,04
833,071	30,91
833,371	31,09
833,671	31,32
833,971	31,36
834,27	31,5
834,57	31,66
834,869	32,03
835,169	32,34
835,468	32,48
835,768	32,76
836,067	32,94
836,367	33,29
836,666	33,87
836,965	34,4
837,264	35,07
837,563	35,85
837,862	36,46
838,161	37,18
838,46	38,19
838,759	39,16
839,058	40,33
839,356	41,34
839,655	41,79
839,954	42,35
840,252	43,27
840,551	44,14
840,849	44,58
841,148	44,8
841,446	44,67
841,744	44,55
842,043	44,33
842,341	44,53
842,639	44,53
842,937	44,27
843,235	44,39
843,533	44,58
843,831	44,97
844,129	45,76
844,427	46,76
844,724	47,59
845,022	48,27
845,32	49,1
845,617	49,86
845,915	50,82
846,212	51,65
846,51	52,15
846,807	52,17
847,104	52,95
847,402	53,33
847,699	54,28
847,996	55,17
848,293	56,27
848,59	56,96
848,887	57,48
849,184	58,3
849,481	58,84
849,778	59,17
850,074	59,71
850,371	60
850,668	59,94
850,964	59,92
851,261	60,18
851,557	60,32
851,854	60,78
852,15	61,31
852,446	61,59
852,743	61,36
853,039	61,51
853,335	61,09
853,631	61,08
853,927	61,39
854,223	61,4
854,519	61,79
854,815	62,91
855,111	63,38
855,406	63,43
855,702	63,67
855,998	64,24
856,293	64,97
856,589	65,8
856,884	66,61
857,18	67,68
857,475	68,49
857,77	68,79
858,066	68,96
858,361	69,29
858,656	69,58
858,951	70,4
859,246	70,97
859,541	71,26
859,836	71,75
860,131	71,54
860,426	71,55
860,72	71,05
861,015	69,8
861,31	68,94
861,604	68,12
861,899	67,65
862,193	67,82
862,487	67,79
862,782	67,56
863,076	67,62
863,37	67,24
863,664	67,27
863,959	67,95
864,253	68,33
864,547	68,09
864,841	67,52
865,135	67,55
865,428	67,57
865,722	67,92
866,016	67,68
866,31	68,32
866,603	69,23
866,897	69,93
867,19	70,83
867,484	71,73
867,777	72,86
868,07	73,12
868,364	72,73
868,657	71,77
868,95	71,14
869,243	70,18
869,536	70,25
869,829	70,3
870,122	69,8
870,415	69,39
870,708	69,86
871	70,49
871,293	70,93
871,586	71,26
871,878	72
872,171	72,72
872,463	72,39
872,756	71,61
873,048	70,71
873,341	70,07
873,633	69,76
873,925	69,38
874,217	69,75
874,509	69,98
874,801	71,06
875,093	72,1
875,385	73,57
875,677	73,96
875,969	74,1
