Data from zc74019_5_Reflection_00002.txt Node
Date: Thu Mar 12 14:45:25 ART 2020
User: Ana
Spectrometer: USB2E3644
Trigger mode: 4
Integration Time (sec): 5,000000E-2
Scans to average: 10
Electric dark correction enabled: true
Nonlinearity correction enabled: false
Boxcar width: 10
XAxis mode: Wavelengths
Number of Pixels in Spectrum: 2048
>>>>>Begin Spectral Data<<<<<
178,315	95,89
178,696	89,19
179,076	69,81
179,457	63,89
179,838	67,07
180,218	84,13
180,599	116,67
180,979	55,17
181,36	276,67
181,74	254,76
182,121	225
182,501	202,83
182,881	189,73
183,262	170,39
183,642	167,05
184,022	163,84
184,402	161,08
184,783	155,36
185,163	152,41
185,543	156,71
185,923	161,03
186,303	162,36
186,683	160,24
187,063	157,07
187,443	158,06
187,823	164,6
188,203	173,32
188,583	178,38
188,963	176,08
189,343	171,98
189,723	170,33
190,102	170,44
190,482	166,46
190,862	164,81
191,242	164,02
191,621	160,38
192,001	155,89
192,38	155,48
192,76	150,87
193,14	144,31
193,519	140,05
193,898	138,93
194,278	138,93
194,657	138,84
195,037	138,3
195,416	136,72
195,795	136,21
196,175	135,75
196,554	134,89
196,933	135,56
197,312	135,89
197,692	135,07
198,071	133,22
198,45	133,18
198,829	134,15
199,208	135,26
199,587	136,32
199,966	135,55
200,345	133,44
200,724	135,95
201,103	138,93
201,482	138,83
201,86	137,45
202,239	136,52
202,618	135,67
202,997	135,21
203,375	134,92
203,754	134,33
204,133	133,1
204,511	131,6
204,89	130,81
205,269	131,37
205,647	131,56
206,026	133,27
206,404	136,81
206,782	137,8
207,161	138,03
207,539	138,93
207,918	142,12
208,296	144,9
208,674	145,07
209,052	146,62
209,431	150,67
209,809	154,58
210,187	157,55
210,565	159,69
210,943	160,52
211,321	160,64
211,699	160,68
212,077	160,53
212,455	160,87
212,833	161,42
213,211	159,29
213,589	160,93
213,967	161,3
214,345	157,4
214,722	152,45
215,1	150,53
215,478	147,96
215,855	145,71
216,233	144,24
216,611	140,43
216,988	136,83
217,366	133,26
217,743	132,3
218,121	131,23
218,498	129,42
218,876	128,27
219,253	129,44
219,631	130,49
220,008	132,3
220,385	136,18
220,762	138,28
221,14	141,82
221,517	139,82
221,894	137,3
222,271	136,31
222,648	138,67
223,025	139,55
223,402	140,25
223,78	140,35
224,157	142,44
224,533	149,74
224,91	158,36
225,287	166,5
225,664	172,28
226,041	179,15
226,418	185,76
226,795	191,7
227,171	200,35
227,548	206,35
227,925	208,6
228,301	210,69
228,678	212,62
229,055	210,75
229,431	216,67
229,808	223,54
230,184	226,68
230,561	234,72
230,937	247,6
231,313	261,21
231,69	268,2
232,066	270,61
232,442	259,75
232,819	248,96
233,195	240,47
233,571	238,9
233,947	233,45
234,323	234,5
234,699	237,59
235,075	238,47
235,451	243,8
235,827	250,13
236,203	262,57
236,579	278,45
236,955	302,29
237,331	328,78
237,707	376,13
238,083	468,14
238,459	622,87
238,834	1105,91
239,21	6856,67
239,586	-1560,77
239,961	-897,79
240,337	-644,62
240,713	-561,48
241,088	-521,46
241,464	-487,56
241,839	-445,97
242,215	-371,4
242,59	-294,09
242,965	-206,26
243,341	-144,48
243,716	-106,84
244,091	-88,12
244,467	-77,87
244,842	-70,35
245,217	-65,13
245,592	-63,04
245,967	-63,69
246,343	-63,27
246,718	-62,97
247,093	-63,85
247,468	-65,27
247,843	-64,11
248,218	-60,83
248,593	-55,84
248,967	-51,53
249,342	-49,28
249,717	-48,09
250,092	-48,03
250,467	-48,64
250,841	-51,85
251,216	-57,83
251,591	-66,68
251,965	-74,53
252,34	-80,75
252,714	-87,96
253,089	-92,58
253,463	-94,34
253,838	-91,15
254,212	-87,16
254,587	-83,25
254,961	-75,86
255,335	-67,06
255,71	-57,92
256,084	-47,92
256,458	-40,95
256,832	-36,5
257,206	-34,12
257,581	-32,57
257,955	-31,22
258,329	-30,07
258,703	-28,85
259,077	-27,8
259,451	-26,54
259,825	-25,93
260,199	-26,14
260,572	-25,9
260,946	-25,8
261,32	-25,56
261,694	-24,98
262,068	-24,74
262,441	-24,53
262,815	-24,71
263,189	-24,43
263,562	-24,53
263,936	-25,98
264,309	-28,21
264,683	-30,25
265,056	-30,81
265,43	-31,07
265,803	-30,9
266,176	-30,23
266,55	-29,73
266,923	-29,53
267,296	-29,13
267,67	-28,11
268,043	-26,62
268,416	-24,81
268,789	-22,94
269,162	-21,45
269,535	-20,34
269,908	-19,45
270,281	-18,97
270,654	-18,94
271,027	-19,54
271,4	-20,01
271,773	-20,33
272,146	-20,3
272,519	-20,3
272,891	-20,23
273,264	-20,29
273,637	-20,48
274,01	-20,52
274,382	-20,89
274,755	-20,97
275,127	-20,96
275,5	-21,11
275,872	-21,17
276,245	-21,35
276,617	-21,93
276,99	-22,61
277,362	-23,56
277,734	-24,09
278,107	-24,05
278,479	-23,61
278,851	-23,14
279,223	-22,66
279,596	-22,48
279,968	-22,45
280,34	-22,26
280,712	-22,15
281,084	-21,49
281,456	-20,59
281,828	-19,84
282,2	-18,86
282,572	-17,9
282,944	-17,34
283,315	-17,04
283,687	-16,77
284,059	-16,78
284,431	-16,72
284,802	-16,31
285,174	-15,75
285,546	-15,13
285,917	-14,64
286,289	-14,34
286,66	-14
287,032	-13,73
287,403	-13,51
287,775	-13,41
288,146	-13,56
288,518	-13,75
288,889	-13,74
289,26	-13,81
289,632	-14,07
290,003	-14,39
290,374	-14,68
290,745	-14,76
291,116	-14,87
291,487	-14,96
291,858	-14,94
292,229	-14,94
292,6	-14,95
292,971	-14,52
293,342	-14,18
293,713	-13,76
294,084	-13,3
294,455	-12,75
294,826	-12,58
295,196	-12,54
295,567	-12,61
295,938	-12,28
296,308	-11,85
296,679	-11,52
297,05	-11,2
297,42	-10,83
297,791	-10,35
298,161	-10,19
298,532	-9,88
298,902	-9,56
299,272	-9,38
299,643	-9,21
300,013	-8,88
300,383	-8,75
300,754	-8,99
301,124	-9,33
301,494	-9,73
301,864	-10,08
302,234	-10,55
302,604	-10,57
302,974	-10,38
303,344	-10,02
303,714	-9,93
304,084	-9,77
304,454	-9,83
304,824	-9,95
305,194	-10,17
305,563	-10,28
305,933	-10,17
306,303	-10,19
306,673	-10,08
307,042	-9,78
307,412	-9,41
307,781	-9,05
308,151	-8,78
308,521	-8,63
308,89	-8,5
309,259	-8,52
309,629	-8,48
309,998	-8,46
310,368	-8,49
310,737	-8,48
311,106	-8,51
311,475	-8,38
311,845	-8,37
312,214	-8,31
312,583	-8,26
312,952	-8,21
313,321	-8,18
313,69	-7,94
314,059	-7,93
314,428	-8,04
314,797	-8,18
315,166	-8,37
315,535	-8,7
315,904	-9,03
316,272	-9,19
316,641	-9,12
317,01	-8,81
317,379	-8,68
317,747	-8,42
318,116	-8,18
318,484	-7,99
318,853	-7,85
319,221	-7,83
319,59	-7,88
319,958	-7,86
320,327	-7,81
320,695	-7,71
321,063	-7,58
321,432	-7,47
321,8	-7,13
322,168	-6,84
322,536	-6,78
322,905	-6,59
323,273	-6,27
323,641	-5,96
324,009	-5,76
324,377	-5,73
324,745	-5,73
325,113	-5,53
325,481	-5,32
325,849	-5,22
326,216	-5,18
326,584	-5,13
326,952	-5,02
327,32	-4,78
327,687	-4,63
328,055	-4,43
328,423	-4,28
328,79	-4,26
329,158	-4,42
329,525	-4,65
329,893	-4,68
330,26	-4,49
330,628	-4,48
330,995	-4,52
331,362	-4,57
331,73	-4,52
332,097	-4,43
332,464	-4,33
332,831	-4,2
333,199	-4,19
333,566	-4,17
333,933	-4,04
334,3	-3,88
334,667	-3,82
335,034	-3,85
335,401	-3,84
335,768	-3,87
336,135	-3,9
336,502	-3,86
336,868	-3,72
337,235	-3,52
337,602	-3,48
337,969	-3,47
338,335	-3,37
338,702	-3,16
339,069	-3,03
339,435	-2,99
339,802	-2,89
340,168	-2,85
340,535	-2,84
340,901	-2,9
341,267	-2,94
341,634	-2,89
342	-2,88
342,366	-2,88
342,733	-2,85
343,099	-2,75
343,465	-2,7
343,831	-2,58
344,197	-2,46
344,563	-2,43
344,929	-2,41
345,295	-2,27
345,661	-2,19
346,027	-2,14
346,393	-2,18
346,759	-2,13
347,125	-2,08
347,491	-2,06
347,856	-2,08
348,222	-2,14
348,588	-1,98
348,953	-1,84
349,319	-1,89
349,684	-1,89
350,05	-1,87
350,415	-1,81
350,781	-1,77
351,146	-1,7
351,512	-1,64
351,877	-1,66
352,242	-1,66
352,608	-1,61
352,973	-1,59
353,338	-1,54
353,703	-1,48
354,068	-1,47
354,433	-1,42
354,798	-1,42
355,164	-1,37
355,528	-1,27
355,893	-1,17
356,258	-1,19
356,623	-1,14
356,988	-0,99
357,353	-0,89
357,718	-0,83
358,082	-0,79
358,447	-0,72
358,812	-0,62
359,176	-0,55
359,541	-0,46
359,905	-0,39
360,27	-0,38
360,634	-0,36
360,999	-0,3
361,363	-0,25
361,728	-0,18
362,092	-0,11
362,456	-0
362,821	0,07
363,185	0,13
363,549	0,24
363,913	0,28
364,277	0,29
364,641	0,26
365,005	0,3
365,369	0,35
365,733	0,4
366,097	0,39
366,461	0,37
366,825	0,4
367,189	0,44
367,553	0,49
367,916	0,63
368,28	0,75
368,644	0,77
369,007	0,82
369,371	0,9
369,734	0,93
370,098	0,97
370,461	1,02
370,825	1,07
371,188	1,1
371,552	1,19
371,915	1,28
372,278	1,43
372,642	1,53
373,005	1,66
373,368	1,82
373,731	1,95
374,094	2,08
374,457	2,15
374,82	2,23
375,183	2,29
375,546	2,32
375,909	2,34
376,272	2,45
376,635	2,55
376,998	2,61
377,361	2,7
377,723	2,79
378,086	2,84
378,449	2,91
378,811	2,98
379,174	3,05
379,537	3,11
379,899	3,14
380,262	3,17
380,624	3,2
380,987	3,21
381,349	3,23
381,711	3,24
382,074	3,29
382,436	3,35
382,798	3,41
383,16	3,44
383,522	3,49
383,884	3,48
384,247	3,5
384,609	3,54
384,971	3,58
385,333	3,58
385,695	3,6
386,056	3,6
386,418	3,58
386,78	3,55
387,142	3,52
387,504	3,51
387,865	3,53
388,227	3,52
388,589	3,52
388,95	3,55
389,312	3,58
389,673	3,61
390,035	3,65
390,396	3,68
390,758	3,71
391,119	3,69
391,48	3,72
391,842	3,73
392,203	3,75
392,564	3,74
392,925	3,78
393,286	3,82
393,648	3,84
394,009	3,87
394,37	3,89
394,731	3,96
395,092	4
395,452	4,01
395,813	4,02
396,174	4,03
396,535	4,05
396,896	4,06
397,257	4,07
397,617	4,08
397,978	4,11
398,338	4,14
398,699	4,2
399,06	4,24
399,42	4,24
399,781	4,24
400,141	4,25
400,501	4,23
400,862	4,22
401,222	4,24
401,582	4,24
401,943	4,26
402,303	4,25
402,663	4,26
403,023	4,27
403,383	4,29
403,743	4,29
404,103	4,3
404,463	4,31
404,823	4,34
405,183	4,36
405,543	4,36
405,903	4,34
406,262	4,33
406,622	4,32
406,982	4,34
407,342	4,37
407,701	4,39
408,061	4,41
408,42	4,42
408,78	4,45
409,139	4,47
409,499	4,47
409,858	4,49
410,217	4,49
410,577	4,49
410,936	4,48
411,295	4,46
411,655	4,44
412,014	4,4
412,373	4,35
412,732	4,29
413,091	4,23
413,45	4,22
413,809	4,18
414,168	4,12
414,527	4,07
414,886	3,99
415,245	3,93
415,603	3,89
415,962	3,84
416,321	3,8
416,679	3,77
417,038	3,73
417,397	3,68
417,755	3,63
418,114	3,61
418,472	3,6
418,831	3,6
419,189	3,6
419,547	3,59
419,906	3,57
420,264	3,54
420,622	3,52
420,981	3,52
421,339	3,52
421,697	3,52
422,055	3,54
422,413	3,56
422,771	3,58
423,129	3,6
423,487	3,63
423,845	3,65
424,203	3,66
424,56	3,7
424,918	3,73
425,276	3,77
425,634	3,8
425,991	3,82
426,349	3,83
426,707	3,84
427,064	3,87
427,422	3,91
427,779	3,96
428,137	4,01
428,494	4,05
428,851	4,07
429,209	4,09
429,566	4,08
429,923	4,07
430,28	4,07
430,637	4,07
430,995	4,05
431,352	4,03
431,709	4,03
432,066	4,04
432,423	4,05
432,78	4,04
433,137	4,05
433,493	4,06
433,85	4,07
434,207	4,05
434,564	4,04
434,92	4,03
435,277	4,04
435,634	4,03
435,99	4,02
436,347	4,01
436,703	4,03
437,06	4,02
437,416	4,02
437,773	4,02
438,129	4,01
438,485	4,02
438,841	4,04
439,198	4,04
439,554	4,03
439,91	4,03
440,266	4,04
440,622	4,04
440,978	4,05
441,334	4,03
441,69	4,03
442,046	4,03
442,402	4,03
442,758	4,02
443,113	4,02
443,469	4,02
443,825	4,03
444,181	4,04
444,536	4,06
444,892	4,08
445,247	4,09
445,603	4,11
445,958	4,12
446,314	4,12
446,669	4,13
447,025	4,14
447,38	4,15
447,735	4,17
448,09	4,19
448,446	4,2
448,801	4,22
449,156	4,24
449,511	4,26
449,866	4,29
450,221	4,32
450,576	4,36
450,931	4,4
451,286	4,42
451,641	4,45
451,995	4,47
452,35	4,5
452,705	4,52
453,06	4,52
453,414	4,52
453,769	4,53
454,123	4,53
454,478	4,53
454,832	4,55
455,187	4,52
455,541	4,51
455,896	4,49
456,25	4,46
456,604	4,45
456,958	4,45
457,313	4,45
457,667	4,44
458,021	4,45
458,375	4,45
458,729	4,48
459,083	4,48
459,437	4,49
459,791	4,48
460,145	4,49
460,499	4,5
460,852	4,5
461,206	4,5
461,56	4,51
461,914	4,52
462,267	4,52
462,621	4,52
462,974	4,54
463,328	4,57
463,681	4,6
464,035	4,63
464,388	4,66
464,742	4,67
465,095	4,69
465,448	4,7
465,801	4,69
466,155	4,67
466,508	4,65
466,861	4,65
467,214	4,65
467,567	4,64
467,92	4,66
468,273	4,67
468,626	4,67
468,979	4,67
469,332	4,66
469,684	4,67
470,037	4,7
470,39	4,72
470,743	4,73
471,095	4,74
471,448	4,75
471,8	4,77
472,153	4,79
472,505	4,81
472,858	4,82
473,21	4,85
473,562	4,87
473,915	4,89
474,267	4,91
474,619	4,92
474,971	4,94
475,324	4,93
475,676	4,96
476,028	4,97
476,38	4,98
476,732	5,01
477,084	5,01
477,436	5
477,787	4,99
478,139	4,97
478,491	4,98
478,843	4,95
479,195	4,92
479,546	4,88
479,898	4,85
480,249	4,79
480,601	4,74
480,952	4,71
481,304	4,71
481,655	4,7
482,007	4,71
482,358	4,71
482,709	4,71
483,061	4,69
483,412	4,7
483,763	4,69
484,114	4,7
484,465	4,7
484,816	4,69
485,167	4,7
485,518	4,71
485,869	4,72
486,22	4,72
486,571	4,74
486,922	4,76
487,272	4,78
487,623	4,81
487,974	4,85
488,324	4,87
488,675	4,88
489,025	4,89
489,376	4,89
489,726	4,9
490,077	4,92
490,427	4,94
490,778	4,96
491,128	4,98
491,478	4,99
491,828	5,03
492,179	5,06
492,529	5,08
492,879	5,1
493,229	5,11
493,579	5,14
493,929	5,15
494,279	5,17
494,629	5,19
494,979	5,21
495,328	5,26
495,678	5,3
496,028	5,35
496,378	5,4
496,727	5,44
497,077	5,46
497,426	5,48
497,776	5,48
498,125	5,49
498,475	5,51
498,824	5,53
499,174	5,52
499,523	5,54
499,872	5,55
500,221	5,58
500,571	5,6
500,92	5,62
501,269	5,66
501,618	5,68
501,967	5,71
502,316	5,73
502,665	5,73
503,014	5,73
503,363	5,75
503,711	5,76
504,06	5,77
504,409	5,78
504,758	5,78
505,106	5,82
505,455	5,83
505,803	5,82
506,152	5,82
506,5	5,84
506,849	5,85
507,197	5,85
507,546	5,85
507,894	5,87
508,242	5,88
508,59	5,86
508,939	5,86
509,287	5,87
509,635	5,89
509,983	5,92
510,331	5,95
510,679	5,98
511,027	6,01
511,375	6,02
511,723	6,05
512,07	6,09
512,418	6,11
512,766	6,15
513,114	6,19
513,461	6,22
513,809	6,24
514,156	6,25
514,504	6,26
514,851	6,28
515,199	6,27
515,546	6,28
515,893	6,31
516,241	6,34
516,588	6,35
516,935	6,36
517,282	6,38
517,63	6,41
517,977	6,42
518,324	6,42
518,671	6,44
519,018	6,46
519,365	6,47
519,711	6,47
520,058	6,47
520,405	6,49
520,752	6,5
521,099	6,53
521,445	6,57
521,792	6,6
522,138	6,62
522,485	6,64
522,832	6,65
523,178	6,66
523,524	6,69
523,871	6,72
524,217	6,74
524,563	6,74
524,91	6,72
525,256	6,7
525,602	6,68
525,948	6,67
526,294	6,66
526,64	6,67
526,986	6,67
527,332	6,67
527,678	6,68
528,024	6,69
528,37	6,71
528,716	6,71
529,061	6,72
529,407	6,74
529,753	6,76
530,098	6,77
530,444	6,79
530,789	6,79
531,135	6,8
531,48	6,81
531,826	6,82
532,171	6,86
532,516	6,9
532,862	6,95
533,207	6,99
533,552	7,04
533,897	7,08
534,242	7,11
534,587	7,14
534,932	7,17
535,277	7,2
535,622	7,2
535,967	7,23
536,312	7,28
536,657	7,3
537,001	7,34
537,346	7,39
537,691	7,42
538,035	7,45
538,38	7,46
538,724	7,48
539,069	7,49
539,413	7,5
539,758	7,53
540,102	7,55
540,446	7,57
540,791	7,58
541,135	7,59
541,479	7,62
541,823	7,63
542,167	7,64
542,512	7,66
542,856	7,68
543,2	7,68
543,543	7,68
543,887	7,69
544,231	7,7
544,575	7,73
544,919	7,76
545,262	7,81
545,606	7,87
545,95	7,91
546,293	7,95
546,637	7,98
546,98	8,01
547,324	8,03
547,667	8,07
548,011	8,1
548,354	8,14
548,697	8,16
549,04	8,21
549,384	8,24
549,727	8,24
550,07	8,26
550,413	8,3
550,756	8,36
551,099	8,4
551,442	8,44
551,785	8,44
552,128	8,49
552,47	8,51
552,813	8,52
553,156	8,54
553,499	8,55
553,841	8,57
554,184	8,6
554,526	8,6
554,869	8,6
555,211	8,6
555,554	8,62
555,896	8,63
556,238	8,6
556,581	8,59
556,923	8,6
557,265	8,61
557,607	8,62
557,949	8,62
558,291	8,62
558,633	8,64
558,975	8,66
559,317	8,66
559,659	8,65
560,001	8,65
560,343	8,65
560,685	8,66
561,026	8,65
561,368	8,68
561,71	8,68
562,051	8,7
562,393	8,73
562,734	8,72
563,076	8,73
563,417	8,76
563,759	8,78
564,1	8,81
564,441	8,82
564,782	8,84
565,124	8,82
565,465	8,82
565,806	8,82
566,147	8,81
566,488	8,83
566,829	8,84
567,17	8,85
567,511	8,88
567,851	8,89
568,192	8,89
568,533	8,88
568,874	8,91
569,214	8,92
569,555	8,92
569,895	8,94
570,236	8,97
570,576	8,98
570,917	8,98
571,257	8,98
571,598	9,01
571,938	9,02
572,278	9,07
572,618	9,12
572,959	9,16
573,299	9,18
573,639	9,19
573,979	9,2
574,319	9,22
574,659	9,24
574,999	9,27
575,339	9,3
575,678	9,33
576,018	9,34
576,358	9,35
576,698	9,38
577,037	9,39
577,377	9,41
577,716	9,43
578,056	9,47
578,395	9,48
578,735	9,48
579,074	9,5
579,413	9,51
579,753	9,49
580,092	9,48
580,431	9,47
580,77	9,5
581,109	9,53
581,448	9,53
581,787	9,53
582,126	9,53
582,465	9,54
582,804	9,54
583,143	9,58
583,482	9,62
583,82	9,64
584,159	9,67
584,498	9,71
584,836	9,75
585,175	9,78
585,514	9,85
585,852	9,88
586,19	9,91
586,529	9,94
586,867	9,97
587,205	10,03
587,544	10,07
587,882	10,08
588,22	10,11
588,558	10,17
588,896	10,21
589,234	10,25
589,572	10,3
589,91	10,36
590,248	10,38
590,586	10,41
590,924	10,43
591,262	10,48
591,599	10,48
591,937	10,52
592,275	10,52
592,612	10,55
592,95	10,61
593,287	10,7
593,625	10,76
593,962	10,84
594,299	10,87
594,637	10,92
594,974	10,99
595,311	11,03
595,648	11,05
595,985	11,09
596,322	11,11
596,659	11,16
596,996	11,19
597,333	11,2
597,67	11,22
598,007	11,27
598,344	11,28
598,681	11,32
599,017	11,34
599,354	11,38
599,691	11,4
600,027	11,43
600,364	11,46
600,7	11,48
601,037	11,53
601,373	11,57
601,71	11,63
602,046	11,67
602,382	11,71
602,718	11,73
603,054	11,78
603,391	11,86
603,727	11,87
604,063	11,91
604,399	11,95
604,735	12
605,071	12,01
605,406	12,05
605,742	12,07
606,078	12,11
606,414	12,16
606,749	12,21
607,085	12,24
607,421	12,27
607,756	12,3
608,092	12,31
608,427	12,35
608,762	12,37
609,098	12,39
609,433	12,39
609,768	12,43
610,104	12,45
610,439	12,43
610,774	12,46
611,109	12,45
611,444	12,47
611,779	12,48
612,114	12,5
612,449	12,54
612,784	12,58
613,118	12,59
613,453	12,61
613,788	12,62
614,123	12,64
614,457	12,65
614,792	12,65
615,126	12,66
615,461	12,67
615,795	12,69
616,13	12,7
616,464	12,74
616,798	12,76
617,132	12,77
617,467	12,85
617,801	12,86
618,135	12,92
618,469	12,97
618,803	13,03
619,137	13,07
619,471	13,09
619,805	13,11
620,139	13,16
620,472	13,22
620,806	13,28
621,14	13,29
621,473	13,3
621,807	13,33
622,141	13,38
622,474	13,4
622,808	13,45
623,141	13,47
623,474	13,54
623,808	13,57
624,141	13,63
624,474	13,66
624,807	13,69
625,141	13,69
625,474	13,73
625,807	13,76
626,14	13,79
626,473	13,82
626,806	13,85
627,138	13,88
627,471	13,88
627,804	13,9
628,137	13,95
628,469	13,99
628,802	14,03
629,135	14,07
629,467	14,13
629,8	14,16
630,132	14,2
630,465	14,24
630,797	14,28
631,129	14,27
631,461	14,29
631,794	14,36
632,126	14,41
632,458	14,43
632,79	14,45
633,122	14,49
633,454	14,53
633,786	14,58
634,118	14,58
634,45	14,64
634,781	14,64
635,113	14,69
635,445	14,72
635,777	14,78
636,108	14,81
636,44	14,83
636,771	14,88
637,103	14,89
637,434	14,92
637,765	14,96
638,097	15
638,428	15,02
638,759	15,02
639,09	15,06
639,422	15,08
639,753	15,11
640,084	15,13
640,415	15,15
640,746	15,2
641,077	15,31
641,407	15,37
641,738	15,47
642,069	15,51
642,4	15,58
642,73	15,57
643,061	15,56
643,392	15,57
643,722	15,6
644,053	15,65
644,383	15,69
644,713	15,74
645,044	15,81
645,374	15,89
645,704	15,89
646,034	15,91
646,365	15,94
646,695	15,95
647,025	16,01
647,355	16,05
647,685	16,09
648,015	16,12
648,344	16,13
648,674	16,13
649,004	16,14
649,334	16,17
649,663	16,24
649,993	16,34
650,323	16,4
650,652	16,42
650,982	16,48
651,311	16,49
651,64	16,5
651,97	16,54
652,299	16,53
652,628	16,62
652,958	16,68
653,287	16,79
653,616	16,86
653,945	16,89
654,274	16,89
654,603	16,93
654,932	16,94
655,261	16,98
655,589	17,03
655,918	17,06
656,247	17,09
656,576	17,16
656,904	17,18
657,233	17,23
657,561	17,27
657,89	17,3
658,218	17,32
658,547	17,37
658,875	17,41
659,203	17,46
659,532	17,49
659,86	17,48
660,188	17,49
660,516	17,53
660,844	17,57
661,172	17,63
661,5	17,67
661,828	17,71
662,156	17,71
662,484	17,74
662,811	17,79
663,139	17,8
663,467	17,81
663,794	17,83
664,122	17,84
664,45	17,85
664,777	17,92
665,104	17,97
665,432	17,96
665,759	17,94
666,086	18,01
666,414	18,04
666,741	18,1
667,068	18,11
667,395	18,13
667,722	18,2
668,049	18,25
668,376	18,25
668,703	18,27
669,03	18,4
669,357	18,45
669,683	18,52
670,01	18,56
670,337	18,54
670,663	18,59
670,99	18,59
671,317	18,68
671,643	18,7
671,969	18,71
672,296	18,76
672,622	18,8
672,948	18,82
673,275	18,82
673,601	18,85
673,927	18,86
674,253	18,89
674,579	18,92
674,905	18,9
675,231	18,91
675,557	18,91
675,883	18,85
676,209	18,82
676,534	18,81
676,86	18,87
677,186	18,99
677,511	18,99
677,837	19,06
678,162	19,06
678,488	19,08
678,813	19,14
679,139	19,2
679,464	19,22
679,789	19,22
680,114	19,26
680,44	19,33
680,765	19,32
681,09	19,29
681,415	19,28
681,74	19,31
682,065	19,42
682,39	19,49
682,714	19,48
683,039	19,51
683,364	19,51
683,689	19,49
684,013	19,46
684,338	19,54
684,662	19,53
684,987	19,6
685,311	19,63
685,636	19,63
685,96	19,62
686,284	19,63
686,608	19,6
686,933	19,63
687,257	19,62
687,581	19,74
687,905	19,86
688,229	19,91
688,553	19,94
688,877	19,92
689,201	19,94
689,524	20
689,848	20,07
690,172	20,12
690,496	20,17
690,819	20,2
691,143	20,19
691,466	20,29
691,79	20,32
692,113	20,32
692,436	20,36
692,76	20,45
693,083	20,55
693,406	20,65
693,729	20,65
694,053	20,63
694,376	20,6
694,699	20,56
695,022	20,54
695,344	20,59
695,667	20,63
695,99	20,72
696,313	20,86
696,636	20,91
696,958	20,98
697,281	21,04
697,604	21,08
697,926	21,1
698,249	21,17
698,571	21,15
698,893	21,15
699,216	21,17
699,538	21,19
699,86	21,21
700,182	21,26
700,504	21,35
700,827	21,39
701,149	21,4
701,471	21,44
701,793	21,51
702,114	21,52
702,436	21,52
702,758	21,46
703,08	21,42
703,401	21,43
703,723	21,47
704,045	21,51
704,366	21,55
704,688	21,58
705,009	21,58
705,331	21,65
705,652	21,76
705,973	21,82
706,294	21,81
706,616	21,82
706,937	21,84
707,258	21,76
707,579	21,76
707,9	21,84
708,221	21,92
708,542	21,97
708,863	22,06
709,183	22,1
709,504	22,16
709,825	22,21
710,145	22,26
710,466	22,28
710,787	22,28
711,107	22,34
711,427	22,33
711,748	22,32
712,068	22,34
712,388	22,39
712,709	22,45
713,029	22,55
713,349	22,55
713,669	22,6
713,989	22,7
714,309	22,81
714,629	22,8
714,949	22,78
715,269	22,8
715,589	22,81
715,908	22,91
716,228	22,92
716,548	22,93
716,867	22,9
717,187	22,89
717,506	23,02
717,826	23,07
718,145	23,15
718,465	23,19
718,784	23,21
719,103	23,24
719,422	23,23
719,741	23,27
720,061	23,38
720,38	23,47
720,699	23,66
721,018	23,77
721,336	23,92
721,655	24,05
721,974	24,2
722,293	24,28
722,612	24,32
722,93	24,46
723,249	24,61
723,567	24,76
723,886	24,95
724,204	25,06
724,523	25,18
724,841	25,28
725,159	25,46
725,477	25,63
725,796	25,77
726,114	25,96
726,432	26,05
726,75	26,15
727,068	26,25
727,386	26,33
727,704	26,53
728,022	26,68
728,339	26,78
728,657	26,77
728,975	26,94
729,292	27,07
729,61	27,23
729,928	27,34
730,245	27,46
730,562	27,57
730,88	27,59
731,197	27,72
731,514	27,88
731,832	27,91
732,149	27,98
732,466	28,13
732,783	28,18
733,1	28,24
733,417	28,39
733,734	28,55
734,051	28,59
734,368	28,54
734,684	28,58
735,001	28,7
735,318	28,86
735,634	28,88
735,951	28,91
736,268	28,92
736,584	29,02
736,9	29,07
737,217	29,08
737,533	29,23
737,849	29,34
738,166	29,43
738,482	29,61
738,798	29,8
739,114	29,86
739,43	30,07
739,746	30,24
740,062	30,33
740,378	30,31
740,693	30,37
741,009	30,49
741,325	30,69
741,641	30,79
741,956	30,94
742,272	31
742,587	31,24
742,903	31,33
743,218	31,28
743,533	31,34
743,849	31,44
744,164	31,4
744,479	31,4
744,794	31,54
745,109	31,55
745,424	31,61
745,739	31,72
746,054	31,64
746,369	31,64
746,684	31,71
746,999	31,85
747,313	31,98
747,628	31,97
747,943	31,92
748,257	31,94
748,572	32,03
748,886	32,22
749,201	32,23
749,515	32,34
749,829	32,47
750,144	32,65
750,458	32,76
750,772	32,94
751,086	33,06
751,4	33,01
751,714	33,03
752,028	33,04
752,342	33,08
752,656	33,19
752,97	33,29
753,284	33,3
753,597	33,43
753,911	33,57
754,225	33,81
754,538	33,94
754,852	34,15
755,165	34,19
755,478	34,19
755,792	34,29
756,105	34,34
756,418	34,48
756,731	34,35
757,045	34,35
757,358	34,29
757,671	34,3
757,984	34,46
758,297	34,48
758,609	34,49
758,922	34,43
759,235	34,32
759,548	34,26
759,86	34,13
760,173	33,79
760,486	33,46
760,798	33,16
761,111	32,93
761,423	32,66
761,735	32,5
762,048	32,49
762,36	32,41
762,672	32,48
762,984	32,47
763,296	32,64
763,608	32,82
763,92	32,97
764,232	33
764,544	33,01
764,856	33,14
765,168	33,29
765,48	33,54
765,791	33,7
766,103	33,87
766,414	34,16
766,726	34,52
767,037	34,9
767,349	35,35
767,66	35,78
767,972	36,3
768,283	36,87
768,594	37,24
768,905	37,64
769,216	37,92
769,527	38,33
769,838	38,59
770,149	38,72
770,46	38,98
770,771	39,31
771,082	39,54
771,393	39,68
771,703	39,72
772,014	39,64
772,324	39,96
772,635	40,16
772,945	40,3
773,256	40,47
773,566	40,78
773,877	40,95
774,187	41,23
774,497	41,38
774,807	41,45
775,117	41,39
775,427	41,41
775,737	41,49
776,047	41,53
776,357	41,62
776,667	41,73
776,977	41,87
777,287	42,06
777,596	41,96
777,906	42,19
778,216	42,47
778,525	42,71
778,835	42,62
779,144	42,88
779,453	42,98
779,763	42,92
780,072	42,83
780,381	42,99
780,69	43,04
781	43,06
781,309	42,88
781,618	43,02
781,927	43,06
782,235	43,26
782,544	43,36
782,853	43,54
783,162	43,71
783,471	43,64
783,779	43,53
784,088	43,66
784,396	43,7
784,705	43,71
785,013	43,48
785,322	43,47
785,63	43,05
785,938	42,84
786,246	42,83
786,554	42,86
786,863	42,74
787,171	42,55
787,479	42,49
787,787	42,74
788,094	42,87
788,402	42,8
788,71	42,66
789,018	42,54
789,326	42,41
789,633	42,34
789,941	42,38
790,248	42,34
790,556	42,55
790,863	42,66
791,171	42,74
791,478	43,06
791,785	43,18
792,092	43,31
792,399	43,39
792,707	43,59
793,014	43,78
793,321	43,83
793,628	44,15
793,934	44,31
794,241	44,13
794,548	44,11
794,855	44,25
795,161	44,46
795,468	44,67
795,775	44,85
796,081	44,85
796,388	44,87
796,694	44,95
797	44,96
797,307	45,1
797,613	45,24
797,919	45,11
798,225	45,12
798,531	45,19
798,837	45,37
799,143	45,49
799,449	45,3
799,755	45,52
800,061	45,5
800,367	45,62
800,672	45,77
800,978	45,92
801,284	46,09
801,589	45,87
801,895	45,64
802,2	45,62
802,506	45,61
802,811	45,51
803,116	45,47
803,421	45,29
803,727	45
804,032	44,78
804,337	44,9
804,642	45,11
804,947	45,22
805,252	45,16
805,556	45,01
805,861	45,36
806,166	45,38
806,471	45,44
806,775	45,66
807,08	45,67
807,384	45,63
807,689	45,72
807,993	46,02
808,298	46,29
808,602	46,33
808,906	46,5
809,211	46,72
809,515	46,88
809,819	47,36
810,123	47,76
810,427	48,14
810,731	48,09
811,035	47,95
811,338	47,97
811,642	48,06
811,946	48,13
812,25	47,92
812,553	47,79
812,857	47,69
813,16	47,39
813,464	47,44
813,767	47,73
814,07	47,61
814,374	47,47
814,677	47,31
814,98	47,17
815,283	46,93
815,586	46,74
815,889	46,74
816,192	46,32
816,495	46,07
816,798	45,68
817,101	45,5
817,404	45,24
817,706	44,87
818,009	44,48
818,312	43,8
818,614	43,03
818,917	41,76
819,219	40,31
819,521	39,16
819,824	38,1
820,126	36,95
820,428	36,18
820,73	35,73
821,032	35,38
821,334	35,24
821,636	35,04
821,938	34,87
822,24	34,74
822,542	34,75
822,844	34,73
823,145	34,71
823,447	34,68
823,749	34,63
824,05	34,51
824,352	34,46
824,653	34,49
824,955	34,49
825,256	34,52
825,557	34,63
825,858	34,77
826,16	35,02
826,461	35,44
826,762	35,94
827,063	36,38
827,364	36,84
827,665	37,19
827,965	37,77
828,266	38,23
828,567	38,6
828,868	38,83
829,168	39,01
829,469	39,09
829,769	39,37
830,07	39,69
830,37	40,08
830,67	40,29
830,971	40,64
831,271	41,01
831,571	41,4
831,871	41,71
832,171	41,71
832,471	41,78
832,771	41,99
833,071	42,11
833,371	42,11
833,671	42,1
833,971	42,15
834,27	41,95
834,57	41,98
834,869	42,19
835,169	42,09
835,468	42,14
835,768	42,42
836,067	42,41
836,367	42,77
836,666	43,28
836,965	44,04
837,264	44,61
837,563	45,01
837,862	45,63
838,161	46,18
838,46	47,05
838,759	47,77
839,058	48,14
839,356	48,71
839,655	49,13
839,954	49,85
840,252	50,18
840,551	50,41
840,849	50,99
841,148	51,19
841,446	51,51
841,744	51,61
842,043	51,5
842,341	51,82
842,639	51,81
842,937	52,01
843,235	52,06
843,533	51,96
843,831	52,64
844,129	53,7
844,427	54,78
844,724	55,95
845,022	56,99
845,32	58,29
845,617	58,8
845,915	59,8
846,212	60,31
846,51	61,1
846,807	62,39
847,104	63,08
847,402	63,7
847,699	64,44
847,996	64,58
848,293	64,99
848,59	65,72
848,887	66,16
849,184	65,92
849,481	65,79
849,778	66,12
850,074	66,53
850,371	66,22
850,668	65,96
850,964	65,39
851,261	64,5
851,557	64,02
851,854	63,92
852,15	63,67
852,446	63,94
852,743	63,82
853,039	63,77
853,335	63,46
853,631	63,36
853,927	64,03
854,223	64,85
854,519	65,37
854,815	64,8
855,111	64,14
855,406	64,59
855,702	65,18
855,998	65,47
856,293	65,27
856,589	65,89
856,884	65,65
857,18	65,76
857,475	66,33
857,77	66,47
858,066	66,95
858,361	67,47
858,656	67,46
858,951	67,64
859,246	68,01
859,541	68,3
859,836	67,74
860,131	66,82
860,426	66,02
860,72	65,5
861,015	65,56
861,31	66,08
861,604	66,29
861,899	65,92
862,193	65,9
862,487	65,96
862,782	65,36
863,076	65,56
863,37	65,33
863,664	65,07
863,959	64,62
864,253	64,05
864,547	63,68
864,841	63,56
865,135	63,23
865,428	62,55
865,722	62,41
866,016	62,63
866,31	62,54
866,603	63,13
866,897	63,35
867,19	62,72
867,484	62,03
867,777	60,84
868,07	60,73
868,364	60,1
868,657	59,8
868,95	59,66
869,243	59,23
869,536	59,45
869,829	59,79
870,122	59,99
870,415	60,39
870,708	60,45
871	60,3
871,293	60,82
871,586	60,75
871,878	60,61
872,171	60,74
872,463	60,72
872,756	60,34
873,048	60,03
873,341	60,48
873,633	60,74
873,925	61,55
874,217	61,65
874,509	62,19
874,801	62,6
875,093	63,09
875,385	64,21
875,677	63,92
875,969	63,29
