Data from zc74010_5_Reflection_00003.txt Node
Date: Thu Mar 12 15:02:05 ART 2020
User: Ana
Spectrometer: USB2E3644
Trigger mode: 4
Integration Time (sec): 5,000000E-2
Scans to average: 10
Electric dark correction enabled: true
Nonlinearity correction enabled: false
Boxcar width: 10
XAxis mode: Wavelengths
Number of Pixels in Spectrum: 2048
>>>>>Begin Spectral Data<<<<<
178,315	93,8
178,696	93,8
179,076	96,5
179,457	99,59
179,838	116,67
180,218	179,26
180,599	894,44
180,979	132,26
181,36	323,61
181,74	154,94
182,121	117,08
182,501	106,47
182,881	97,77
183,262	93,29
183,642	90,74
184,022	89,13
184,402	91,69
184,783	95,46
185,163	95,9
185,543	97,13
185,923	97,77
186,303	99,49
186,683	99,28
187,063	100,41
187,443	103,81
187,823	106,35
188,203	107,59
188,583	108,28
188,963	108,02
189,343	107,19
189,723	108,29
190,102	112,33
190,482	117,78
190,862	121,64
191,242	124,64
191,621	126,05
192,001	126,07
192,38	125,32
192,76	122,93
193,14	121,96
193,519	121,31
193,898	121,39
194,278	121,03
194,657	122,5
195,037	122,8
195,416	119,45
195,795	117,85
196,175	118,14
196,554	117,56
196,933	116,12
197,312	114,52
197,692	113,21
198,071	112,17
198,45	112,07
198,829	112,65
199,208	113,28
199,587	112,82
199,966	112,02
200,345	110,69
200,724	111,22
201,103	112,02
201,482	113,14
201,86	113,8
202,239	113,29
202,618	112,79
202,997	113,3
203,375	115,22
203,754	116,19
204,133	116,45
204,511	116,26
204,89	117,15
205,269	118,59
205,647	119,6
206,026	119,67
206,404	119,98
206,782	120
207,161	119,92
207,539	120,3
207,918	121,92
208,296	124,16
208,674	124,79
209,052	125,38
209,431	126,24
209,809	126,82
210,187	126,79
210,565	126,38
210,943	126,09
211,321	126,02
211,699	127,51
212,077	129,39
212,455	130,57
212,833	131,25
213,211	131,59
213,589	132,95
213,967	133,46
214,345	132,95
214,722	133,39
215,1	133,28
215,478	133,24
215,855	133,46
216,233	133,43
216,611	135,02
216,988	134,9
217,366	132,89
217,743	132,36
218,121	134,04
218,498	135,73
218,876	135,65
219,253	134,39
219,631	132,56
220,008	130,09
220,385	128,55
220,762	127,06
221,14	125,37
221,517	122,73
221,894	121,5
222,271	119,85
222,648	117,71
223,025	116,38
223,402	115,77
223,78	114,81
224,157	114,03
224,533	112,53
224,91	112,78
225,287	114,51
225,664	115,24
226,041	114,58
226,418	114,41
226,795	114,83
227,171	115,36
227,548	116,54
227,925	117,2
228,301	118,49
228,678	120,54
229,055	122
229,431	123,43
229,808	124,77
230,184	126,35
230,561	128,6
230,937	131,28
231,313	133,9
231,69	135,31
232,066	137,01
232,442	138,69
232,819	139,54
233,195	139,33
233,571	139,84
233,947	142,3
234,323	144,03
234,699	145,38
235,075	146,78
235,451	147,89
235,827	150,62
236,203	153,27
236,579	155,53
236,955	160,19
237,331	168,94
237,707	179,32
238,083	191,35
238,459	205,47
238,834	230,41
239,21	270,51
239,586	326,27
239,961	390,08
240,337	460,32
240,713	523,07
241,088	594,44
241,464	683,9
241,839	801,89
242,215	1066,52
242,59	2495,58
242,965	-1528,54
243,341	-434,92
243,716	-234,9
244,091	-167,42
244,467	-138,03
244,842	-121,94
245,217	-111,29
245,592	-106,48
245,967	-106,93
246,343	-105,46
246,718	-104,2
247,093	-106,72
247,468	-109,49
247,843	-109,29
248,218	-104,94
248,593	-98,05
248,967	-90,8
249,342	-86,72
249,717	-84,35
250,092	-83,07
250,467	-84,32
250,841	-89,97
251,216	-102,87
251,591	-124,34
251,965	-149,29
252,34	-169,39
252,714	-189,45
253,089	-202,81
253,463	-212,04
253,838	-209,72
254,212	-203,67
254,587	-192,99
254,961	-171,27
255,335	-145,99
255,71	-120,92
256,084	-94,64
256,458	-75,07
256,832	-63,12
257,206	-56,75
257,581	-53,7
257,955	-51,6
258,329	-49,58
258,703	-47,54
259,077	-45,83
259,451	-44,01
259,825	-42,96
260,199	-42,52
260,572	-41,86
260,946	-41,89
261,32	-41,37
261,694	-40,47
262,068	-39,99
262,441	-39,61
262,815	-39,54
263,189	-39,26
263,562	-39,59
263,936	-41,91
264,309	-45,88
264,683	-50,47
265,056	-53,08
265,43	-54,3
265,803	-55,02
266,176	-55,03
266,55	-54,64
266,923	-53,71
267,296	-52,69
267,67	-50,85
268,043	-48,79
268,416	-45,82
268,789	-42,75
269,162	-40,3
269,535	-38,04
269,908	-36,43
270,281	-35,43
270,654	-35,31
271,027	-36,04
271,4	-36,76
271,773	-36,9
272,146	-36,93
272,519	-36,91
272,891	-36,81
273,264	-36,83
273,637	-36,59
274,01	-36,32
274,382	-36,93
274,755	-37,38
275,127	-37,63
275,5	-37,92
275,872	-38,17
276,245	-38,85
276,617	-40,1
276,99	-40,98
277,362	-42,21
277,734	-42,93
278,107	-42,7
278,479	-42,13
278,851	-41,12
279,223	-40,17
279,596	-39,27
279,968	-38,63
280,34	-37,75
280,712	-36,96
281,084	-35,38
281,456	-33,56
281,828	-31,79
282,2	-29,41
282,572	-27,5
282,944	-26,06
283,315	-25,13
283,687	-24,45
284,059	-24,11
284,431	-23,68
284,802	-22,93
285,174	-22,21
285,546	-21,61
285,917	-21,03
286,289	-20,37
286,66	-19,96
287,032	-19,46
287,403	-19,12
287,775	-19,07
288,146	-19,39
288,518	-19,59
288,889	-19,59
289,26	-19,69
289,632	-20,23
290,003	-20,93
290,374	-21,32
290,745	-21,58
291,116	-21,71
291,487	-21,77
291,858	-21,54
292,229	-21,21
292,6	-21,01
292,971	-20,45
293,342	-19,75
293,713	-19,02
294,084	-18,5
294,455	-17,83
294,826	-17,35
295,196	-17,25
295,567	-17,36
295,938	-17,01
296,308	-16,7
296,679	-16,46
297,05	-16,18
297,42	-15,62
297,791	-15,09
298,161	-14,88
298,532	-14,54
298,902	-14,12
299,272	-13,86
299,643	-13,68
300,013	-13,31
300,383	-13,18
300,754	-13,31
301,124	-13,56
301,494	-13,83
301,864	-14,07
302,234	-14,42
302,604	-14,76
302,974	-14,86
303,344	-14,59
303,714	-14,28
304,084	-13,87
304,454	-13,75
304,824	-13,81
305,194	-14,03
305,563	-14,13
305,933	-14,08
306,303	-13,97
306,673	-13,76
307,042	-13,28
307,412	-12,64
307,781	-12,09
308,151	-11,71
308,521	-11,4
308,89	-11,19
309,259	-11,33
309,629	-11,4
309,998	-11,34
310,368	-11,31
310,737	-11,19
311,106	-11,07
311,475	-11,04
311,845	-11,14
312,214	-11,03
312,583	-10,83
312,952	-10,66
313,321	-10,45
313,69	-10,12
314,059	-10
314,428	-10,08
314,797	-10,37
315,166	-10,92
315,535	-11,52
315,904	-11,92
316,272	-12,19
316,641	-12,25
317,01	-11,86
317,379	-11,62
317,747	-11,42
318,116	-11,02
318,484	-10,83
318,853	-10,71
319,221	-10,6
319,59	-10,61
319,958	-10,65
320,327	-10,67
320,695	-10,66
321,063	-10,57
321,432	-10,52
321,8	-10,3
322,168	-10,09
322,536	-9,92
322,905	-9,42
323,273	-9,01
323,641	-8,72
324,009	-8,39
324,377	-8,18
324,745	-8,08
325,113	-7,83
325,481	-7,51
325,849	-7,34
326,216	-7,13
326,584	-6,94
326,952	-6,79
327,32	-6,49
327,687	-6,25
328,055	-5,98
328,423	-5,76
328,79	-5,73
329,158	-5,77
329,525	-5,89
329,893	-5,84
330,26	-5,61
330,628	-5,59
330,995	-5,52
331,362	-5,49
331,73	-5,55
332,097	-5,61
332,464	-5,61
332,831	-5,62
333,199	-5,72
333,566	-5,71
333,933	-5,59
334,3	-5,42
334,667	-5,31
335,034	-5,27
335,401	-5,33
335,768	-5,43
336,135	-5,51
336,502	-5,49
336,868	-5,38
337,235	-5,24
337,602	-5,18
337,969	-5,13
338,335	-5,04
338,702	-4,86
339,069	-4,72
339,435	-4,65
339,802	-4,51
340,168	-4,41
340,535	-4,23
340,901	-4,16
341,267	-4,15
341,634	-4,15
342	-4,19
342,366	-4,14
342,733	-4,1
343,099	-3,92
343,465	-3,74
343,831	-3,59
344,197	-3,47
344,563	-3,42
344,929	-3,37
345,295	-3,25
345,661	-3,11
346,027	-3,03
346,393	-3,03
346,759	-2,94
347,125	-2,8
347,491	-2,68
347,856	-2,67
348,222	-2,73
348,588	-2,6
348,953	-2,49
349,319	-2,46
349,684	-2,35
350,05	-2,32
350,415	-2,22
350,781	-2,14
351,146	-2,04
351,512	-1,92
351,877	-1,85
352,242	-1,76
352,608	-1,61
352,973	-1,5
353,338	-1,41
353,703	-1,28
354,068	-1,24
354,433	-1,18
354,798	-1,14
355,164	-1,1
355,528	-1
355,893	-0,92
356,258	-0,88
356,623	-0,74
356,988	-0,56
357,353	-0,47
357,718	-0,36
358,082	-0,3
358,447	-0,25
358,812	-0,14
359,176	-0,06
359,541	0,03
359,905	0,09
360,27	0,12
360,634	0,17
360,999	0,22
361,363	0,27
361,728	0,35
362,092	0,41
362,456	0,47
362,821	0,55
363,185	0,64
363,549	0,75
363,913	0,78
364,277	0,79
364,641	0,74
365,005	0,8
365,369	0,85
365,733	0,95
366,097	1,02
366,461	1,06
366,825	1,16
367,189	1,23
367,553	1,32
367,916	1,42
368,28	1,48
368,644	1,49
369,007	1,55
369,371	1,62
369,734	1,7
370,098	1,76
370,461	1,8
370,825	1,83
371,188	1,86
371,552	1,95
371,915	2,02
372,278	2,16
372,642	2,27
373,005	2,38
373,368	2,48
373,731	2,57
374,094	2,66
374,457	2,72
374,82	2,83
375,183	2,89
375,546	2,96
375,909	3,05
376,272	3,17
376,635	3,26
376,998	3,33
377,361	3,38
377,723	3,45
378,086	3,51
378,449	3,58
378,811	3,64
379,174	3,73
379,537	3,82
379,899	3,86
380,262	3,87
380,624	3,88
380,987	3,92
381,349	3,98
381,711	4,04
382,074	4,11
382,436	4,21
382,798	4,32
383,16	4,35
383,522	4,38
383,884	4,42
384,247	4,43
384,609	4,48
384,971	4,51
385,333	4,52
385,695	4,55
386,056	4,57
386,418	4,56
386,78	4,54
387,142	4,54
387,504	4,54
387,865	4,59
388,227	4,61
388,589	4,63
388,95	4,62
389,312	4,59
389,673	4,58
390,035	4,54
390,396	4,54
390,758	4,56
391,119	4,56
391,48	4,56
391,842	4,59
392,203	4,6
392,564	4,61
392,925	4,68
393,286	4,73
393,648	4,79
394,009	4,85
394,37	4,88
394,731	4,92
395,092	4,95
395,452	4,98
395,813	5,01
396,174	5,04
396,535	5,06
396,896	5,09
397,257	5,14
397,617	5,19
397,978	5,21
398,338	5,23
398,699	5,28
399,06	5,33
399,42	5,34
399,781	5,36
400,141	5,4
400,501	5,39
400,862	5,39
401,222	5,39
401,582	5,38
401,943	5,41
402,303	5,41
402,663	5,43
403,023	5,44
403,383	5,48
403,743	5,48
404,103	5,52
404,463	5,56
404,823	5,62
405,183	5,62
405,543	5,64
405,903	5,65
406,262	5,65
406,622	5,63
406,982	5,65
407,342	5,68
407,701	5,69
408,061	5,7
408,42	5,74
408,78	5,77
409,139	5,79
409,499	5,81
409,858	5,82
410,217	5,87
410,577	5,87
410,936	5,84
411,295	5,82
411,655	5,79
412,014	5,74
412,373	5,67
412,732	5,63
413,091	5,58
413,45	5,53
413,809	5,49
414,168	5,45
414,527	5,39
414,886	5,32
415,245	5,26
415,603	5,23
415,962	5,18
416,321	5,14
416,679	5,1
417,038	5,05
417,397	5
417,755	4,93
418,114	4,9
418,472	4,88
418,831	4,88
419,189	4,88
419,547	4,87
419,906	4,86
420,264	4,84
420,622	4,83
420,981	4,83
421,339	4,84
421,697	4,84
422,055	4,86
422,413	4,88
422,771	4,91
423,129	4,93
423,487	4,95
423,845	4,97
424,203	5
424,56	5,04
424,918	5,06
425,276	5,11
425,634	5,15
425,991	5,18
426,349	5,22
426,707	5,26
427,064	5,3
427,422	5,32
427,779	5,37
428,137	5,42
428,494	5,47
428,851	5,48
429,209	5,48
429,566	5,48
429,923	5,49
430,28	5,48
430,637	5,48
430,995	5,47
431,352	5,47
431,709	5,47
432,066	5,48
432,423	5,51
432,78	5,5
433,137	5,5
433,493	5,49
433,85	5,49
434,207	5,45
434,564	5,43
434,92	5,43
435,277	5,42
435,634	5,4
435,99	5,38
436,347	5,38
436,703	5,41
437,06	5,39
437,416	5,4
437,773	5,39
438,129	5,37
438,485	5,39
438,841	5,38
439,198	5,38
439,554	5,36
439,91	5,37
440,266	5,39
440,622	5,4
440,978	5,39
441,334	5,35
441,69	5,34
442,046	5,32
442,402	5,31
442,758	5,32
443,113	5,32
443,469	5,32
443,825	5,31
444,181	5,3
444,536	5,33
444,892	5,34
445,247	5,36
445,603	5,39
445,958	5,4
446,314	5,4
446,669	5,41
447,025	5,41
447,38	5,4
447,735	5,4
448,09	5,4
448,446	5,41
448,801	5,43
449,156	5,47
449,511	5,51
449,866	5,57
450,221	5,6
450,576	5,63
450,931	5,69
451,286	5,72
451,641	5,77
451,995	5,8
452,35	5,81
452,705	5,83
453,06	5,83
453,414	5,84
453,769	5,84
454,123	5,85
454,478	5,87
454,832	5,9
455,187	5,87
455,541	5,87
455,896	5,86
456,25	5,84
456,604	5,82
456,958	5,79
457,313	5,77
457,667	5,74
458,021	5,75
458,375	5,76
458,729	5,77
459,083	5,78
459,437	5,78
459,791	5,79
460,145	5,8
460,499	5,8
460,852	5,79
461,206	5,79
461,56	5,8
461,914	5,8
462,267	5,79
462,621	5,82
462,974	5,84
463,328	5,86
463,681	5,89
464,035	5,93
464,388	5,96
464,742	5,98
465,095	6,01
465,448	6,02
465,801	6,01
466,155	6,01
466,508	5,99
466,861	5,97
467,214	5,97
467,567	5,97
467,92	5,98
468,273	6
468,626	6,02
468,979	6,02
469,332	6,03
469,684	6,04
470,037	6,04
470,39	6,04
470,743	6,05
471,095	6,08
471,448	6,09
471,8	6,12
472,153	6,14
472,505	6,14
472,858	6,15
473,21	6,16
473,562	6,16
473,915	6,18
474,267	6,2
474,619	6,2
474,971	6,2
475,324	6,2
475,676	6,2
476,028	6,2
476,38	6,2
476,732	6,2
477,084	6,2
477,436	6,19
477,787	6,19
478,139	6,18
478,491	6,17
478,843	6,16
479,195	6,14
479,546	6,08
479,898	6,07
480,249	6,03
480,601	5,99
480,952	5,96
481,304	5,95
481,655	5,94
482,007	5,93
482,358	5,93
482,709	5,93
483,061	5,91
483,412	5,91
483,763	5,9
484,114	5,91
484,465	5,91
484,816	5,9
485,167	5,9
485,518	5,91
485,869	5,91
486,22	5,92
486,571	5,93
486,922	5,95
487,272	5,95
487,623	5,98
487,974	6
488,324	6,02
488,675	6,05
489,025	6,06
489,376	6,08
489,726	6,08
490,077	6,1
490,427	6,12
490,778	6,14
491,128	6,17
491,478	6,19
491,828	6,23
492,179	6,27
492,529	6,3
492,879	6,32
493,229	6,34
493,579	6,36
493,929	6,38
494,279	6,41
494,629	6,44
494,979	6,47
495,328	6,51
495,678	6,56
496,028	6,59
496,378	6,65
496,727	6,68
497,077	6,72
497,426	6,74
497,776	6,75
498,125	6,75
498,475	6,76
498,824	6,77
499,174	6,78
499,523	6,79
499,872	6,8
500,221	6,83
500,571	6,85
500,92	6,86
501,269	6,87
501,618	6,89
501,967	6,91
502,316	6,9
502,665	6,92
503,014	6,92
503,363	6,93
503,711	6,95
504,06	6,96
504,409	6,96
504,758	6,96
505,106	6,97
505,455	7
505,803	7
506,152	7
506,5	7,01
506,849	7,02
507,197	7,03
507,546	7,02
507,894	7,04
508,242	7,04
508,59	7,04
508,939	7,05
509,287	7,05
509,635	7,06
509,983	7,08
510,331	7,1
510,679	7,12
511,027	7,13
511,375	7,13
511,723	7,15
512,07	7,18
512,418	7,2
512,766	7,21
513,114	7,24
513,461	7,26
513,809	7,26
514,156	7,27
514,504	7,27
514,851	7,27
515,199	7,28
515,546	7,29
515,893	7,3
516,241	7,32
516,588	7,33
516,935	7,36
517,282	7,39
517,63	7,42
517,977	7,43
518,324	7,45
518,671	7,47
519,018	7,48
519,365	7,48
519,711	7,49
520,058	7,5
520,405	7,53
520,752	7,56
521,099	7,58
521,445	7,6
521,792	7,61
522,138	7,64
522,485	7,65
522,832	7,7
523,178	7,71
523,524	7,72
523,871	7,74
524,217	7,75
524,563	7,72
524,91	7,7
525,256	7,68
525,602	7,69
525,948	7,7
526,294	7,7
526,64	7,7
526,986	7,7
527,332	7,7
527,678	7,71
528,024	7,72
528,37	7,75
528,716	7,75
529,061	7,77
529,407	7,79
529,753	7,79
530,098	7,8
530,444	7,81
530,789	7,83
531,135	7,83
531,48	7,83
531,826	7,86
532,171	7,9
532,516	7,94
532,862	7,96
533,207	7,99
533,552	8,03
533,897	8,08
534,242	8,11
534,587	8,13
534,932	8,16
535,277	8,19
535,622	8,19
535,967	8,23
536,312	8,25
536,657	8,28
537,001	8,33
537,346	8,37
537,691	8,42
538,035	8,44
538,38	8,46
538,724	8,49
539,069	8,5
539,413	8,52
539,758	8,53
540,102	8,56
540,446	8,58
540,791	8,59
541,135	8,6
541,479	8,61
541,823	8,64
542,167	8,63
542,512	8,66
542,856	8,65
543,2	8,67
543,543	8,68
543,887	8,68
544,231	8,7
544,575	8,71
544,919	8,72
545,262	8,76
545,606	8,8
545,95	8,83
546,293	8,86
546,637	8,88
546,98	8,91
547,324	8,93
547,667	8,97
548,011	9
548,354	9,04
548,697	9,05
549,04	9,06
549,384	9,07
549,727	9,06
550,07	9,11
550,413	9,12
550,756	9,15
551,099	9,19
551,442	9,21
551,785	9,25
552,128	9,29
552,47	9,31
552,813	9,33
553,156	9,35
553,499	9,36
553,841	9,38
554,184	9,39
554,526	9,39
554,869	9,37
555,211	9,37
555,554	9,37
555,896	9,39
556,238	9,37
556,581	9,39
556,923	9,41
557,265	9,4
557,607	9,4
557,949	9,41
558,291	9,41
558,633	9,41
558,975	9,41
559,317	9,38
559,659	9,38
560,001	9,37
560,343	9,38
560,685	9,38
561,026	9,37
561,368	9,36
561,71	9,37
562,051	9,39
562,393	9,42
562,734	9,41
563,076	9,45
563,417	9,45
563,759	9,47
564,1	9,5
564,441	9,52
564,782	9,52
565,124	9,53
565,465	9,56
565,806	9,55
566,147	9,57
566,488	9,57
566,829	9,58
567,17	9,61
567,511	9,61
567,851	9,64
568,192	9,65
568,533	9,66
568,874	9,67
569,214	9,71
569,555	9,68
569,895	9,68
570,236	9,66
570,576	9,67
570,917	9,68
571,257	9,66
571,598	9,68
571,938	9,72
572,278	9,73
572,618	9,74
572,959	9,77
573,299	9,79
573,639	9,79
573,979	9,8
574,319	9,8
574,659	9,81
574,999	9,81
575,339	9,83
575,678	9,86
576,018	9,87
576,358	9,86
576,698	9,88
577,037	9,91
577,377	9,93
577,716	9,96
578,056	9,97
578,395	9,96
578,735	9,96
579,074	9,95
579,413	9,94
579,753	9,94
580,092	9,91
580,431	9,91
580,77	9,94
581,109	9,95
581,448	9,95
581,787	9,96
582,126	9,99
582,465	10,02
582,804	10,02
583,143	10,06
583,482	10,06
583,82	10,09
584,159	10,11
584,498	10,14
584,836	10,16
585,175	10,17
585,514	10,19
585,852	10,21
586,19	10,24
586,529	10,28
586,867	10,3
587,205	10,35
587,544	10,4
587,882	10,43
588,22	10,46
588,558	10,51
588,896	10,52
589,234	10,54
589,572	10,52
589,91	10,55
590,248	10,54
590,586	10,57
590,924	10,58
591,262	10,57
591,599	10,58
591,937	10,61
592,275	10,64
592,612	10,69
592,95	10,75
593,287	10,81
593,625	10,85
593,962	10,91
594,299	10,95
594,637	11,02
594,974	11,05
595,311	11,09
595,648	11,12
595,985	11,17
596,322	11,19
596,659	11,25
596,996	11,27
597,333	11,3
597,67	11,33
598,007	11,37
598,344	11,41
598,681	11,45
599,017	11,49
599,354	11,51
599,691	11,53
600,027	11,58
600,364	11,59
600,7	11,63
601,037	11,69
601,373	11,76
601,71	11,77
602,046	11,82
602,382	11,84
602,718	11,89
603,054	11,91
603,391	11,94
603,727	11,93
604,063	11,98
604,399	12,02
604,735	12,05
605,071	12,08
605,406	12,11
605,742	12,16
606,078	12,19
606,414	12,23
606,749	12,28
607,085	12,31
607,421	12,34
607,756	12,37
608,092	12,36
608,427	12,35
608,762	12,38
609,098	12,38
609,433	12,36
609,768	12,36
610,104	12,37
610,439	12,38
610,774	12,42
611,109	12,43
611,444	12,45
611,779	12,44
612,114	12,44
612,449	12,46
612,784	12,45
613,118	12,45
613,453	12,46
613,788	12,43
614,123	12,4
614,457	12,38
614,792	12,35
615,126	12,38
615,461	12,36
615,795	12,37
616,13	12,39
616,464	12,45
616,798	12,44
617,132	12,46
617,467	12,47
617,801	12,48
618,135	12,49
618,469	12,53
618,803	12,57
619,137	12,65
619,471	12,66
619,805	12,67
620,139	12,69
620,472	12,74
620,806	12,79
621,14	12,82
621,473	12,85
621,807	12,91
622,141	12,92
622,474	12,97
622,808	12,97
623,141	13,01
623,474	13,04
623,808	13,12
624,141	13,18
624,474	13,25
624,807	13,3
625,141	13,36
625,474	13,4
625,807	13,45
626,14	13,45
626,473	13,53
626,806	13,56
627,138	13,62
627,471	13,62
627,804	13,65
628,137	13,71
628,469	13,71
628,802	13,72
629,135	13,74
629,467	13,77
629,8	13,82
630,132	13,86
630,465	13,9
630,797	13,93
631,129	13,95
631,461	13,99
631,794	14
632,126	14,02
632,458	14,04
632,79	14,09
633,122	14,12
633,454	14,12
633,786	14,17
634,118	14,15
634,45	14,17
634,781	14,19
635,113	14,2
635,445	14,26
635,777	14,34
636,108	14,38
636,44	14,4
636,771	14,43
637,103	14,43
637,434	14,45
637,765	14,46
638,097	14,48
638,428	14,48
638,759	14,49
639,09	14,51
639,422	14,54
639,753	14,55
640,084	14,55
640,415	14,57
640,746	14,57
641,077	14,64
641,407	14,68
641,738	14,73
642,069	14,74
642,4	14,81
642,73	14,79
643,061	14,83
643,392	14,85
643,722	14,91
644,053	14,93
644,383	14,93
644,713	14,95
645,044	14,99
645,374	15,05
645,704	15,09
646,034	15,08
646,365	15,06
646,695	15,06
647,025	15,1
647,355	15,12
647,685	15,11
648,015	15,1
648,344	15,11
648,674	15,16
649,004	15,17
649,334	15,17
649,663	15,24
649,993	15,28
650,323	15,33
650,652	15,29
650,982	15,34
651,311	15,37
651,64	15,41
651,97	15,41
652,299	15,41
652,628	15,46
652,958	15,49
653,287	15,58
653,616	15,63
653,945	15,66
654,274	15,72
654,603	15,74
654,932	15,8
655,261	15,87
655,589	15,9
655,918	15,97
656,247	16,02
656,576	16,08
656,904	16,14
657,233	16,19
657,561	16,26
657,89	16,35
658,218	16,41
658,547	16,45
658,875	16,51
659,203	16,56
659,532	16,61
659,86	16,67
660,188	16,66
660,516	16,68
660,844	16,72
661,172	16,76
661,5	16,84
661,828	16,89
662,156	16,91
662,484	16,94
662,811	16,94
663,139	16,96
663,467	16,92
663,794	16,87
664,122	16,85
664,45	16,87
664,777	16,85
665,104	16,86
665,432	16,84
665,759	16,81
666,086	16,82
666,414	16,83
666,741	16,83
667,068	16,89
667,395	16,89
667,722	16,92
668,049	16,94
668,376	16,96
668,703	16,94
669,03	16,96
669,357	16,98
669,683	17,01
670,01	17,04
670,337	17,07
670,663	17,11
670,99	17,17
671,317	17,25
671,643	17,28
671,969	17,3
672,296	17,33
672,622	17,42
672,948	17,46
673,275	17,47
673,601	17,51
673,927	17,52
674,253	17,57
674,579	17,58
674,905	17,56
675,231	17,58
675,557	17,6
675,883	17,61
676,209	17,6
676,534	17,61
676,86	17,6
677,186	17,68
677,511	17,79
677,837	17,81
678,162	17,8
678,488	17,83
678,813	17,87
679,139	17,95
679,464	17,98
679,789	18
680,114	17,99
680,44	17,96
680,765	17,98
681,09	18,02
681,415	18,08
681,74	18,12
682,065	18,16
682,39	18,22
682,714	18,28
683,039	18,33
683,364	18,37
683,689	18,43
684,013	18,38
684,338	18,33
684,662	18,37
684,987	18,42
685,311	18,42
685,636	18,46
685,96	18,53
686,284	18,53
686,608	18,51
686,933	18,58
687,257	18,66
687,581	18,71
687,905	18,78
688,229	18,79
688,553	18,79
688,877	18,8
689,201	18,81
689,524	18,79
689,848	18,79
690,172	18,83
690,496	18,87
690,819	18,91
691,143	18,95
691,466	18,96
691,79	18,95
692,113	18,99
692,436	18,98
692,76	18,98
693,083	19
693,406	19,04
693,729	19,04
694,053	19,04
694,376	18,98
694,699	18,91
695,022	18,97
695,344	19,08
695,667	19,16
695,99	19,25
696,313	19,37
696,636	19,49
696,958	19,61
697,281	19,69
697,604	19,75
697,926	19,84
698,249	19,9
698,571	19,93
698,893	19,94
699,216	19,91
699,538	19,88
699,86	19,89
700,182	19,91
700,504	19,98
700,827	19,98
701,149	20,03
701,471	20,04
701,793	19,93
702,114	19,88
702,436	19,83
702,758	19,77
703,08	19,65
703,401	19,5
703,723	19,36
704,045	19,32
704,366	19,29
704,688	19,17
705,009	19,12
705,331	19,19
705,652	19,28
705,973	19,36
706,294	19,35
706,616	19,35
706,937	19,38
707,258	19,37
707,579	19,45
707,9	19,51
708,221	19,58
708,542	19,76
708,863	19,79
709,183	19,88
709,504	19,97
709,825	20,1
710,145	20,26
710,466	20,36
710,787	20,41
711,107	20,53
711,427	20,6
711,748	20,67
712,068	20,72
712,388	20,76
712,709	20,86
713,029	20,97
713,349	21,04
713,669	21,08
713,989	21,14
714,309	21,19
714,629	21,28
714,949	21,34
715,269	21,36
715,589	21,48
715,908	21,51
716,228	21,54
716,548	21,56
716,867	21,58
717,187	21,69
717,506	21,76
717,826	21,67
718,145	21,7
718,465	21,72
718,784	21,66
719,103	21,67
719,422	21,69
719,741	21,73
720,061	21,84
720,38	21,98
720,699	22,07
721,018	22,14
721,336	22,24
721,655	22,37
721,974	22,45
722,293	22,5
722,612	22,64
722,93	22,75
723,249	22,78
723,567	22,83
723,886	22,85
724,204	22,93
724,523	23,15
724,841	23,34
725,159	23,44
725,477	23,68
725,796	23,88
726,114	24,04
726,432	24,16
726,75	24,22
727,068	24,25
727,386	24,4
727,704	24,58
728,022	24,74
728,339	24,82
728,657	24,99
728,975	25,11
729,292	25,18
729,61	25,2
729,928	25,36
730,245	25,5
730,562	25,61
730,88	25,77
731,197	25,93
731,514	26,03
731,832	26,18
732,149	26,24
732,466	26,28
732,783	26,27
733,1	26,38
733,417	26,51
733,734	26,66
734,051	26,7
734,368	26,75
734,684	26,71
735,001	26,79
735,318	26,76
735,634	26,83
735,951	26,89
736,268	27,08
736,584	27,27
736,9	27,42
737,217	27,58
737,533	27,68
737,849	27,77
738,166	27,85
738,482	27,96
738,798	28,07
739,114	28,19
739,43	28,4
739,746	28,56
740,062	28,62
740,378	28,69
740,693	28,82
741,009	29,07
741,325	29,34
741,641	29,41
741,956	29,57
742,272	29,72
742,587	29,87
742,903	30,04
743,218	30,03
743,533	30,05
743,849	30,18
744,164	30,2
744,479	30,22
744,794	30,35
745,109	30,33
745,424	30,32
745,739	30,25
746,054	30,31
746,369	30,28
746,684	30,4
746,999	30,51
747,313	30,56
747,628	30,47
747,943	30,51
748,257	30,72
748,572	30,93
748,886	31,13
749,201	31,34
749,515	31,4
749,829	31,5
750,144	31,63
750,458	31,68
750,772	31,79
751,086	31,9
751,4	31,97
751,714	32,13
752,028	32,2
752,342	32,31
752,656	32,39
752,97	32,57
753,284	32,6
753,597	32,61
753,911	32,71
754,225	32,8
754,538	32,73
754,852	32,63
755,165	32,58
755,478	32,49
755,792	32,44
756,105	32,52
756,418	32,58
756,731	32,57
757,045	32,62
757,358	32,69
757,671	32,72
757,984	32,83
758,297	32,9
758,609	32,98
758,922	32,96
759,235	32,89
759,548	32,78
759,86	32,8
760,173	32,68
760,486	32,62
760,798	32,48
761,111	32,49
761,423	32,46
761,735	32,47
762,048	32,59
762,36	32,66
762,672	32,7
762,984	32,81
763,296	33,03
763,608	33,13
763,92	33,21
764,232	33,31
764,544	33,33
764,856	33,33
765,168	33,46
765,48	33,71
765,791	33,8
766,103	33,94
766,414	34,11
766,726	34,46
767,037	34,7
767,349	35,17
767,66	35,58
767,972	36,08
768,283	36,53
768,594	36,76
768,905	36,91
769,216	37,11
769,527	37,34
769,838	37,51
770,149	37,67
770,46	37,83
770,771	38,06
771,082	38,29
771,393	38,62
771,703	38,83
772,014	39,04
772,324	39,27
772,635	39,31
772,945	39,35
773,256	39,47
773,566	39,75
773,877	39,71
774,187	39,67
774,497	39,66
774,807	39,55
775,117	39,64
775,427	39,81
775,737	40,01
776,047	40,02
776,357	39,89
776,667	39,96
776,977	40,01
777,287	40,05
777,596	40,08
777,906	40,23
778,216	40,28
778,525	40,26
778,835	40,38
779,144	40,83
779,453	41,28
779,763	41,54
780,072	41,54
780,381	41,67
780,69	41,76
781	41,84
781,309	41,98
781,618	42,04
781,927	42,34
782,235	42,41
782,544	42,7
782,853	42,95
783,162	43,13
783,471	43,24
783,779	43,39
784,088	43,54
784,396	43,62
784,705	43,76
785,013	43,79
785,322	43,8
785,63	43,62
785,938	43,28
786,246	43,09
786,554	42,99
786,863	42,95
787,171	42,93
787,479	43,16
787,787	43,39
788,094	43,55
788,402	43,4
788,71	43,53
789,018	43,43
789,326	43,3
789,633	43,15
789,941	43,19
790,248	43,17
790,556	43,16
790,863	43,09
791,171	43,02
791,478	42,99
791,785	43,13
792,092	43,11
792,399	43,41
792,707	43,42
793,014	43,56
793,321	43,63
793,628	43,79
793,934	43,77
794,241	43,83
794,548	43,88
794,855	43,97
795,161	43,86
795,468	43,69
795,775	43,57
796,081	43,61
796,388	43,51
796,694	43,41
797	43,29
797,307	43,5
797,613	43,74
797,919	44
798,225	44,19
798,531	44,5
798,837	44,67
799,143	44,88
799,449	44,91
799,755	45,33
800,061	45,44
800,367	45,53
800,672	45,6
800,978	45,7
801,284	45,84
801,589	45,77
801,895	45,95
802,2	46,39
802,506	46,64
802,811	46,82
803,116	46,96
803,421	47,13
803,727	47,04
804,032	46,96
804,337	46,95
804,642	47,04
804,947	46,98
805,252	46,68
805,556	46,72
805,861	46,86
806,166	46,51
806,471	46,41
806,775	46,45
807,08	46,48
807,384	46,26
807,689	46,3
807,993	46,69
808,298	46,93
808,602	46,95
808,906	47,03
809,211	47
809,515	47,1
809,819	47,42
810,123	47,75
810,427	47,95
810,731	47,89
811,035	47,73
811,338	47,71
811,642	47,95
811,946	47,97
812,25	48,04
812,553	48,09
812,857	48,09
813,16	48,11
813,464	47,9
813,767	47,99
814,07	48
814,374	48
814,677	47,97
814,98	47,84
815,283	47,79
815,586	47,71
815,889	47,76
816,192	47,54
816,495	47,26
816,798	46,89
817,101	46,61
817,404	46,3
817,706	46,06
818,009	45,6
818,312	44,78
818,614	43,85
818,917	42,39
819,219	40,84
819,521	39,26
819,824	37,94
820,126	37,1
820,428	36,4
820,73	35,97
821,032	35,52
821,334	35,24
821,636	35,07
821,938	35,02
822,24	34,88
822,542	34,83
822,844	34,85
823,145	34,88
823,447	34,89
823,749	34,84
824,05	34,77
824,352	34,69
824,653	34,7
824,955	34,72
825,256	34,88
825,557	35,12
825,858	35,41
826,16	35,76
826,461	36,11
826,762	36,55
827,063	36,94
827,364	37,51
827,665	38,02
827,965	38,46
828,266	38,84
828,567	39,27
828,868	39,55
829,168	39,66
829,469	39,78
829,769	39,97
830,07	40,28
830,37	40,58
830,67	41,03
830,971	41,4
831,271	41,97
831,571	42,16
831,871	42,23
832,171	42,34
832,471	42,6
832,771	42,63
833,071	42,61
833,371	42,54
833,671	42,52
833,971	42,57
834,27	42,49
834,57	42,7
834,869	42,92
835,169	43,02
835,468	43,04
835,768	43,2
836,067	43,42
836,367	43,64
836,666	44,08
836,965	44,51
837,264	45
837,563	45,39
837,862	46,16
838,161	46,92
838,46	47,49
838,759	47,89
839,058	48,55
839,356	49,37
839,655	50,15
839,954	50,74
840,252	51,12
840,551	51,79
840,849	51,98
841,148	52
841,446	52,19
841,744	52,22
842,043	52,09
842,341	52,22
842,639	52,27
842,937	52,35
843,235	52,31
843,533	52,61
843,831	52,85
844,129	53,31
844,427	54,25
844,724	55,23
845,022	56,74
845,32	57,51
845,617	58,02
845,915	58,62
846,212	59,14
846,51	59,99
846,807	60,69
847,104	61,26
847,402	61,95
847,699	63,21
847,996	64,75
848,293	65,91
848,59	66,56
848,887	67,26
849,184	67,58
849,481	68,22
849,778	68,34
850,074	68,65
850,371	68,76
850,668	68,48
850,964	68,15
851,261	67,68
851,557	67,73
851,854	67,47
852,15	66,9
852,446	67,19
852,743	67,19
853,039	67,25
853,335	67,05
853,631	66,63
853,927	65,79
854,223	65,04
854,519	64,41
854,815	64,02
855,111	63,55
855,406	63,56
855,702	63,66
855,998	64,26
856,293	64,77
856,589	65,19
856,884	65,4
857,18	66,3
857,475	66,92
857,77	67,34
858,066	67,55
858,361	67,86
858,656	67,59
858,951	67,5
859,246	67,34
859,541	67,22
859,836	67,5
860,131	67,73
860,426	67,99
860,72	68,65
861,015	68,9
861,31	69,56
861,604	69,96
861,899	70,3
862,193	70,43
862,487	70,49
862,782	70,66
863,076	70,81
863,37	70,79
863,664	70,92
863,959	71,11
864,253	71,45
864,547	72,05
864,841	72,59
865,135	72,39
865,428	72,25
865,722	72,77
866,016	73,46
866,31	73,74
866,603	73,59
866,897	73,12
867,19	72,94
867,484	72,84
867,777	72,39
868,07	72,17
868,364	72,04
868,657	71,66
868,95	71,17
869,243	70,51
869,536	69,76
869,829	68,49
870,122	67,61
870,415	67
870,708	66,51
871	65,48
871,293	64,99
871,586	64,58
871,878	63,91
872,171	63,37
872,463	63,32
872,756	63,61
873,048	63,37
873,341	63,05
873,633	62,49
873,925	62,28
874,217	61,53
874,509	60,77
874,801	60,4
875,093	60,47
875,385	60,85
875,677	60,97
875,969	61,7
