Data from zc74019_2_Reflection_00005.txt Node
Date: Thu Mar 12 14:41:55 ART 2020
User: Ana
Spectrometer: USB2E3644
Trigger mode: 4
Integration Time (sec): 5,000000E-2
Scans to average: 10
Electric dark correction enabled: true
Nonlinearity correction enabled: false
Boxcar width: 10
XAxis mode: Wavelengths
Number of Pixels in Spectrum: 2048
>>>>>Begin Spectral Data<<<<<
178,315	62,05
178,696	57,66
179,076	37,04
179,457	22,41
179,838	27,64
180,218	48,68
180,599	42,22
180,979	31,03
181,36	162,22
181,74	194,44
182,121	189,74
182,501	166,67
182,881	160,73
183,262	147,9
183,642	136,62
184,022	134,17
184,402	128,6
184,783	120,58
185,163	115,06
185,543	117,21
185,923	116,48
186,303	116,12
186,683	117,48
187,063	116,61
187,443	119,52
187,823	131,32
188,203	144,07
188,583	152,59
188,963	152,88
189,343	150,96
189,723	148,06
190,102	146,7
190,482	143,08
190,862	145,1
191,242	148,12
191,621	148,2
192,001	144,7
192,38	144,69
192,76	141,76
193,14	137,68
193,519	133,1
193,898	133,45
194,278	132,42
194,657	130,67
195,037	128,6
195,416	126,46
195,795	125,33
196,175	125,72
196,554	125,81
196,933	127,42
197,312	128,27
197,692	129,1
198,071	130
198,45	131,31
198,829	132,94
199,208	133,51
199,587	134,31
199,966	134,08
200,345	133,16
200,724	135,28
201,103	138,78
201,482	140,91
201,86	139,48
202,239	139,41
202,618	139,31
202,997	139,11
203,375	138,46
203,754	137,23
204,133	134,97
204,511	131,45
204,89	129,34
205,269	128,8
205,647	127,7
206,026	127,21
206,404	128,92
206,782	128,47
207,161	128,2
207,539	128,36
207,918	129,08
208,296	129,32
208,674	128,97
209,052	129,04
209,431	129,92
209,809	132,3
210,187	133,72
210,565	135,14
210,943	136,2
211,321	136,48
211,699	135,39
212,077	134,19
212,455	135,01
212,833	137,14
213,211	136,75
213,589	139,04
213,967	139,16
214,345	136,2
214,722	131,9
215,1	129,75
215,478	129,81
215,855	130,53
216,233	131,28
216,611	130,36
216,988	127,66
217,366	126,35
217,743	126,98
218,121	126,95
218,498	126,93
218,876	125,48
219,253	125,71
219,631	128,11
220,008	130,69
220,385	132,09
220,762	131,37
221,14	132,61
221,517	129,28
221,894	125,78
222,271	124,81
222,648	127,57
223,025	129,82
223,402	128,89
223,78	128,44
224,157	129,46
224,533	133,16
224,91	140,13
225,287	144,72
225,664	148,66
226,041	154,63
226,418	159,6
226,795	167,77
227,171	180,31
227,548	188,09
227,925	191,36
228,301	197,62
228,678	201,8
229,055	203,22
229,431	211,69
229,808	222,99
230,184	228,69
230,561	235,48
230,937	245,29
231,313	259,1
231,69	264,6
232,066	266,47
232,442	255,31
232,819	246,58
233,195	243,15
233,571	243,01
233,947	239,41
234,323	237,58
234,699	236,82
235,075	233,09
235,451	235,32
235,827	240,19
236,203	248,77
236,579	263,47
236,955	284,2
237,331	306,03
237,707	347,87
238,083	426,67
238,459	562,4
238,834	998,21
239,21	6102,22
239,586	-1386,67
239,961	-799,41
240,337	-573,63
240,713	-499,09
241,088	-461,78
241,464	-428,33
241,839	-389,97
242,215	-329,94
242,59	-263,55
242,965	-185,81
243,341	-129,52
243,716	-95,84
244,091	-79,99
244,467	-71,35
244,842	-64,96
245,217	-60,66
245,592	-58,41
245,967	-58,47
246,343	-58,54
246,718	-58,73
247,093	-60,02
247,468	-61,53
247,843	-60,72
248,218	-58,02
248,593	-53,49
248,967	-49,57
249,342	-47,78
249,717	-46,77
250,092	-46,33
250,467	-47,1
250,841	-50,37
251,216	-56,81
251,591	-65,11
251,965	-72,34
252,34	-76,69
252,714	-82,43
253,089	-86,1
253,463	-88,34
253,838	-87,24
254,212	-84,02
254,587	-80,23
254,961	-73,29
255,335	-64,61
255,71	-55,18
256,084	-45,7
256,458	-38,87
256,832	-33,87
257,206	-31,12
257,581	-29,5
257,955	-28,52
258,329	-27,55
258,703	-26,48
259,077	-25,63
259,451	-24,7
259,825	-24,47
260,199	-25,04
260,572	-24,99
260,946	-24,95
261,32	-24,66
261,694	-23,96
262,068	-23,76
262,441	-23,77
262,815	-24,03
263,189	-23,97
263,562	-24,42
263,936	-25,8
264,309	-27,85
264,683	-30,42
265,056	-31,42
265,43	-31,87
265,803	-31,77
266,176	-31,02
266,55	-30,08
266,923	-29
267,296	-28,09
267,67	-26,97
268,043	-25,87
268,416	-24,68
268,789	-23,56
269,162	-22,45
269,535	-21,78
269,908	-21,11
270,281	-20,53
270,654	-20,26
271,027	-20,77
271,4	-21,18
271,773	-21,39
272,146	-21,49
272,519	-21,38
272,891	-21,49
273,264	-21,47
273,637	-21,49
274,01	-21,58
274,382	-22,18
274,755	-22,51
275,127	-22,87
275,5	-22,98
275,872	-22,74
276,245	-22,86
276,617	-23,28
276,99	-23,69
277,362	-24,11
277,734	-24
278,107	-23,63
278,479	-23,39
278,851	-23,01
279,223	-22,42
279,596	-22,27
279,968	-22,24
280,34	-22,03
280,712	-21,6
281,084	-20,81
281,456	-19,78
281,828	-18,68
282,2	-17,26
282,572	-16,14
282,944	-15,37
283,315	-14,84
283,687	-14,38
284,059	-14,15
284,431	-13,92
284,802	-13,47
285,174	-13,04
285,546	-12,77
285,917	-12,41
286,289	-12,02
286,66	-11,68
287,032	-11,49
287,403	-11,28
287,775	-11,03
288,146	-11,16
288,518	-11,43
288,889	-11,46
289,26	-11,62
289,632	-12,03
290,003	-12,59
290,374	-13,07
290,745	-13,35
291,116	-13,65
291,487	-13,91
291,858	-13,71
292,229	-13,45
292,6	-13,22
292,971	-12,58
293,342	-12,03
293,713	-11,46
294,084	-11,09
294,455	-10,62
294,826	-10,36
295,196	-10,22
295,567	-10,4
295,938	-10,06
296,308	-9,6
296,679	-9,43
297,05	-9,31
297,42	-9,07
297,791	-8,65
298,161	-8,41
298,532	-8,17
298,902	-7,89
299,272	-7,65
299,643	-7,57
300,013	-7,33
300,383	-7,3
300,754	-7,66
301,124	-8,06
301,494	-8,5
301,864	-8,79
302,234	-9,09
302,604	-9,19
302,974	-9,16
303,344	-8,91
303,714	-8,83
304,084	-8,71
304,454	-8,65
304,824	-8,46
305,194	-8,43
305,563	-8,42
305,933	-8,26
306,303	-8
306,673	-7,64
307,042	-7,31
307,412	-6,99
307,781	-6,64
308,151	-6,36
308,521	-6,16
308,89	-6,02
309,259	-6,01
309,629	-5,83
309,998	-5,57
310,368	-5,39
310,737	-5,32
311,106	-5,25
311,475	-5,2
311,845	-5,3
312,214	-5,26
312,583	-5,22
312,952	-5,23
313,321	-5,27
313,69	-5,14
314,059	-5,07
314,428	-5,13
314,797	-5,21
315,166	-5,39
315,535	-5,77
315,904	-6,19
316,272	-6,37
316,641	-6,3
317,01	-6,24
317,379	-6,34
317,747	-6,41
318,116	-6,34
318,484	-6,2
318,853	-6,16
319,221	-6,14
319,59	-6,11
319,958	-6,08
320,327	-6,13
320,695	-6,12
321,063	-5,95
321,432	-5,91
321,8	-5,84
322,168	-5,73
322,536	-5,81
322,905	-5,54
323,273	-5,2
323,641	-4,88
324,009	-4,65
324,377	-4,57
324,745	-4,33
325,113	-4,02
325,481	-3,82
325,849	-3,73
326,216	-3,67
326,584	-3,5
326,952	-3,4
327,32	-3,13
327,687	-2,87
328,055	-2,56
328,423	-2,31
328,79	-2,25
329,158	-2,25
329,525	-2,33
329,893	-2,34
330,26	-2,11
330,628	-2,02
330,995	-1,92
331,362	-1,84
331,73	-1,84
332,097	-1,81
332,464	-1,79
332,831	-1,8
333,199	-1,8
333,566	-1,78
333,933	-1,71
334,3	-1,66
334,667	-1,61
335,034	-1,61
335,401	-1,62
335,768	-1,67
336,135	-1,61
336,502	-1,59
336,868	-1,52
337,235	-1,44
337,602	-1,33
337,969	-1,28
338,335	-1,26
338,702	-1,18
339,069	-1,14
339,435	-1,09
339,802	-0,96
340,168	-0,92
340,535	-0,93
340,901	-1,01
341,267	-1,05
341,634	-0,99
342	-0,95
342,366	-0,89
342,733	-0,93
343,099	-0,9
343,465	-0,93
343,831	-1,02
344,197	-1
344,563	-1
344,929	-0,96
345,295	-0,88
345,661	-0,76
346,027	-0,7
346,393	-0,75
346,759	-0,69
347,125	-0,6
347,491	-0,57
347,856	-0,52
348,222	-0,47
348,588	-0,33
348,953	-0,19
349,319	-0,23
349,684	-0,22
350,05	-0,15
350,415	0,03
350,781	0,14
351,146	0,26
351,512	0,38
351,877	0,5
352,242	0,56
352,608	0,55
352,973	0,57
353,338	0,58
353,703	0,67
354,068	0,73
354,433	0,81
354,798	0,9
355,164	0,99
355,528	1,06
355,893	1,1
356,258	1,15
356,623	1,19
356,988	1,31
357,353	1,4
357,718	1,42
358,082	1,39
358,447	1,4
358,812	1,48
359,176	1,56
359,541	1,62
359,905	1,71
360,27	1,78
360,634	1,8
360,999	1,84
361,363	1,82
361,728	1,83
362,092	1,8
362,456	1,75
362,821	1,76
363,185	1,76
363,549	1,82
363,913	1,82
364,277	1,85
364,641	1,83
365,005	1,85
365,369	1,92
365,733	2,01
366,097	2,1
366,461	2,16
366,825	2,21
367,189	2,24
367,553	2,29
367,916	2,43
368,28	2,52
368,644	2,56
369,007	2,64
369,371	2,72
369,734	2,82
370,098	2,92
370,461	3
370,825	3,11
371,188	3,21
371,552	3,32
371,915	3,39
372,278	3,52
372,642	3,61
373,005	3,68
373,368	3,78
373,731	3,83
374,094	3,89
374,457	3,95
374,82	4,05
375,183	4,12
375,546	4,14
375,909	4,2
376,272	4,29
376,635	4,36
376,998	4,45
377,361	4,5
377,723	4,58
378,086	4,64
378,449	4,66
378,811	4,68
379,174	4,73
379,537	4,78
379,899	4,85
380,262	4,89
380,624	4,91
380,987	4,93
381,349	4,99
381,711	5,05
382,074	5,12
382,436	5,19
382,798	5,28
383,16	5,33
383,522	5,37
383,884	5,39
384,247	5,42
384,609	5,46
384,971	5,52
385,333	5,54
385,695	5,56
386,056	5,59
386,418	5,61
386,78	5,62
387,142	5,61
387,504	5,59
387,865	5,6
388,227	5,65
388,589	5,66
388,95	5,66
389,312	5,64
389,673	5,63
390,035	5,6
390,396	5,57
390,758	5,55
391,119	5,56
391,48	5,59
391,842	5,6
392,203	5,6
392,564	5,6
392,925	5,62
393,286	5,65
393,648	5,72
394,009	5,76
394,37	5,79
394,731	5,85
395,092	5,9
395,452	5,94
395,813	5,96
396,174	5,94
396,535	5,95
396,896	5,97
397,257	6,01
397,617	6,06
397,978	6,08
398,338	6,12
398,699	6,13
399,06	6,15
399,42	6,15
399,781	6,14
400,141	6,13
400,501	6,15
400,862	6,14
401,222	6,09
401,582	6,07
401,943	6,06
402,303	6,05
402,663	6,04
403,023	6,01
403,383	6,02
403,743	6,03
404,103	6,06
404,463	6,08
404,823	6,08
405,183	6,08
405,543	6,11
405,903	6,13
406,262	6,15
406,622	6,14
406,982	6,12
407,342	6,14
407,701	6,15
408,061	6,14
408,42	6,14
408,78	6,17
409,139	6,16
409,499	6,17
409,858	6,18
410,217	6,19
410,577	6,19
410,936	6,19
411,295	6,19
411,655	6,16
412,014	6,12
412,373	6,08
412,732	6,05
413,091	6,01
413,45	5,96
413,809	5,91
414,168	5,86
414,527	5,85
414,886	5,8
415,245	5,78
415,603	5,74
415,962	5,7
416,321	5,66
416,679	5,62
417,038	5,57
417,397	5,53
417,755	5,48
418,114	5,46
418,472	5,44
418,831	5,43
419,189	5,44
419,547	5,43
419,906	5,41
420,264	5,39
420,622	5,36
420,981	5,36
421,339	5,35
421,697	5,36
422,055	5,37
422,413	5,39
422,771	5,4
423,129	5,42
423,487	5,45
423,845	5,48
424,203	5,5
424,56	5,55
424,918	5,57
425,276	5,62
425,634	5,65
425,991	5,68
426,349	5,7
426,707	5,73
427,064	5,78
427,422	5,81
427,779	5,86
428,137	5,93
428,494	5,98
428,851	6,02
429,209	6,04
429,566	6,04
429,923	6,02
430,28	6,02
430,637	6
430,995	5,97
431,352	5,96
431,709	5,95
432,066	5,96
432,423	5,96
432,78	5,95
433,137	5,94
433,493	5,94
433,85	5,96
434,207	5,92
434,564	5,89
434,92	5,88
435,277	5,88
435,634	5,86
435,99	5,83
436,347	5,83
436,703	5,85
437,06	5,84
437,416	5,84
437,773	5,83
438,129	5,83
438,485	5,85
438,841	5,84
439,198	5,84
439,554	5,83
439,91	5,85
440,266	5,85
440,622	5,86
440,978	5,85
441,334	5,83
441,69	5,82
442,046	5,82
442,402	5,8
442,758	5,78
443,113	5,78
443,469	5,78
443,825	5,77
444,181	5,78
444,536	5,79
444,892	5,81
445,247	5,82
445,603	5,83
445,958	5,83
446,314	5,83
446,669	5,84
447,025	5,84
447,38	5,83
447,735	5,84
448,09	5,84
448,446	5,84
448,801	5,85
449,156	5,88
449,511	5,9
449,866	5,94
450,221	5,99
450,576	6,01
450,931	6,06
451,286	6,09
451,641	6,11
451,995	6,13
452,35	6,14
452,705	6,16
453,06	6,16
453,414	6,18
453,769	6,2
454,123	6,21
454,478	6,21
454,832	6,22
455,187	6,19
455,541	6,18
455,896	6,16
456,25	6,15
456,604	6,13
456,958	6,11
457,313	6,1
457,667	6,08
458,021	6,07
458,375	6,07
458,729	6,07
459,083	6,08
459,437	6,08
459,791	6,08
460,145	6,08
460,499	6,09
460,852	6,08
461,206	6,07
461,56	6,06
461,914	6,08
462,267	6,06
462,621	6,08
462,974	6,08
463,328	6,07
463,681	6,08
464,035	6,09
464,388	6,11
464,742	6,1
465,095	6,11
465,448	6,12
465,801	6,12
466,155	6,11
466,508	6,09
466,861	6,08
467,214	6,08
467,567	6,06
467,92	6,06
468,273	6,05
468,626	6,06
468,979	6,07
469,332	6,06
469,684	6,06
470,037	6,06
470,39	6,07
470,743	6,1
471,095	6,12
471,448	6,14
471,8	6,15
472,153	6,17
472,505	6,18
472,858	6,18
473,21	6,18
473,562	6,2
473,915	6,21
474,267	6,22
474,619	6,22
474,971	6,21
475,324	6,22
475,676	6,22
476,028	6,23
476,38	6,22
476,732	6,22
477,084	6,22
477,436	6,22
477,787	6,22
478,139	6,19
478,491	6,18
478,843	6,16
479,195	6,15
479,546	6,11
479,898	6,06
480,249	5,99
480,601	5,95
480,952	5,94
481,304	5,93
481,655	5,93
482,007	5,93
482,358	5,93
482,709	5,93
483,061	5,92
483,412	5,92
483,763	5,91
484,114	5,9
484,465	5,89
484,816	5,89
485,167	5,89
485,518	5,9
485,869	5,91
486,22	5,91
486,571	5,91
486,922	5,92
487,272	5,94
487,623	5,97
487,974	5,99
488,324	6
488,675	5,99
489,025	6
489,376	6
489,726	6,01
490,077	6,02
490,427	6,03
490,778	6,04
491,128	6,07
491,478	6,08
491,828	6,12
492,179	6,14
492,529	6,15
492,879	6,15
493,229	6,17
493,579	6,18
493,929	6,19
494,279	6,2
494,629	6,21
494,979	6,23
495,328	6,25
495,678	6,28
496,028	6,32
496,378	6,34
496,727	6,35
497,077	6,37
497,426	6,38
497,776	6,38
498,125	6,38
498,475	6,37
498,824	6,38
499,174	6,38
499,523	6,39
499,872	6,4
500,221	6,42
500,571	6,43
500,92	6,43
501,269	6,43
501,618	6,43
501,967	6,45
502,316	6,45
502,665	6,44
503,014	6,45
503,363	6,44
503,711	6,45
504,06	6,44
504,409	6,43
504,758	6,44
505,106	6,46
505,455	6,47
505,803	6,47
506,152	6,46
506,5	6,45
506,849	6,45
507,197	6,44
507,546	6,44
507,894	6,45
508,242	6,46
508,59	6,44
508,939	6,45
509,287	6,45
509,635	6,46
509,983	6,48
510,331	6,5
510,679	6,5
511,027	6,49
511,375	6,5
511,723	6,5
512,07	6,51
512,418	6,51
512,766	6,5
513,114	6,52
513,461	6,54
513,809	6,55
514,156	6,54
514,504	6,55
514,851	6,54
515,199	6,52
515,546	6,51
515,893	6,53
516,241	6,52
516,588	6,52
516,935	6,53
517,282	6,53
517,63	6,53
517,977	6,54
518,324	6,56
518,671	6,56
519,018	6,57
519,365	6,57
519,711	6,57
520,058	6,59
520,405	6,59
520,752	6,58
521,099	6,58
521,445	6,6
521,792	6,6
522,138	6,61
522,485	6,6
522,832	6,6
523,178	6,61
523,524	6,62
523,871	6,61
524,217	6,6
524,563	6,58
524,91	6,54
525,256	6,51
525,602	6,5
525,948	6,49
526,294	6,49
526,64	6,48
526,986	6,48
527,332	6,47
527,678	6,48
528,024	6,48
528,37	6,49
528,716	6,48
529,061	6,49
529,407	6,49
529,753	6,48
530,098	6,48
530,444	6,47
530,789	6,47
531,135	6,47
531,48	6,49
531,826	6,5
532,171	6,52
532,516	6,53
532,862	6,54
533,207	6,55
533,552	6,55
533,897	6,56
534,242	6,56
534,587	6,56
534,932	6,57
535,277	6,57
535,622	6,58
535,967	6,59
536,312	6,6
536,657	6,61
537,001	6,64
537,346	6,64
537,691	6,65
538,035	6,64
538,38	6,64
538,724	6,63
539,069	6,62
539,413	6,63
539,758	6,64
540,102	6,65
540,446	6,64
540,791	6,64
541,135	6,64
541,479	6,65
541,823	6,66
542,167	6,64
542,512	6,65
542,856	6,63
543,2	6,64
543,543	6,62
543,887	6,63
544,231	6,64
544,575	6,65
544,919	6,67
545,262	6,7
545,606	6,72
545,95	6,73
546,293	6,74
546,637	6,73
546,98	6,74
547,324	6,73
547,667	6,77
548,011	6,78
548,354	6,8
548,697	6,8
549,04	6,81
549,384	6,82
549,727	6,78
550,07	6,79
550,413	6,77
550,756	6,77
551,099	6,78
551,442	6,76
551,785	6,75
552,128	6,73
552,47	6,69
552,813	6,69
553,156	6,68
553,499	6,67
553,841	6,68
554,184	6,68
554,526	6,68
554,869	6,65
555,211	6,64
555,554	6,63
555,896	6,61
556,238	6,57
556,581	6,53
556,923	6,53
557,265	6,5
557,607	6,48
557,949	6,47
558,291	6,47
558,633	6,46
558,975	6,45
559,317	6,44
559,659	6,44
560,001	6,4
560,343	6,38
560,685	6,35
561,026	6,32
561,368	6,31
561,71	6,29
562,051	6,26
562,393	6,24
562,734	6,21
563,076	6,21
563,417	6,21
563,759	6,22
564,1	6,24
564,441	6,26
564,782	6,26
565,124	6,24
565,465	6,22
565,806	6,21
566,147	6,2
566,488	6,18
566,829	6,16
567,17	6,17
567,511	6,15
567,851	6,14
568,192	6,13
568,533	6,13
568,874	6,12
569,214	6,14
569,555	6,12
569,895	6,12
570,236	6,09
570,576	6,07
570,917	6,04
571,257	6,01
571,598	5,98
571,938	6
572,278	6
572,618	6
572,959	5,99
573,299	5,98
573,639	5,97
573,979	5,98
574,319	5,96
574,659	5,94
574,999	5,93
575,339	5,92
575,678	5,92
576,018	5,9
576,358	5,88
576,698	5,88
577,037	5,86
577,377	5,85
577,716	5,84
578,056	5,84
578,395	5,82
578,735	5,82
579,074	5,79
579,413	5,75
579,753	5,71
580,092	5,67
580,431	5,64
580,77	5,64
581,109	5,61
581,448	5,59
581,787	5,61
582,126	5,63
582,465	5,61
582,804	5,57
583,143	5,57
583,482	5,57
583,82	5,57
584,159	5,56
584,498	5,58
584,836	5,58
585,175	5,57
585,514	5,58
585,852	5,55
586,19	5,55
586,529	5,53
586,867	5,54
587,205	5,56
587,544	5,6
587,882	5,61
588,22	5,61
588,558	5,63
588,896	5,63
589,234	5,6
589,572	5,61
589,91	5,62
590,248	5,6
590,586	5,56
590,924	5,56
591,262	5,57
591,599	5,56
591,937	5,57
592,275	5,58
592,612	5,59
592,95	5,62
593,287	5,62
593,625	5,64
593,962	5,64
594,299	5,67
594,637	5,69
594,974	5,71
595,311	5,73
595,648	5,71
595,985	5,7
596,322	5,7
596,659	5,71
596,996	5,71
597,333	5,71
597,67	5,72
598,007	5,72
598,344	5,7
598,681	5,72
599,017	5,71
599,354	5,7
599,691	5,69
600,027	5,7
600,364	5,71
600,7	5,74
601,037	5,77
601,373	5,78
601,71	5,79
602,046	5,79
602,382	5,79
602,718	5,82
603,054	5,83
603,391	5,84
603,727	5,84
604,063	5,84
604,399	5,86
604,735	5,88
605,071	5,88
605,406	5,88
605,742	5,87
606,078	5,9
606,414	5,94
606,749	5,97
607,085	5,98
607,421	5,97
607,756	5,97
608,092	5,96
608,427	5,95
608,762	5,92
609,098	5,9
609,433	5,89
609,768	5,88
610,104	5,87
610,439	5,87
610,774	5,86
611,109	5,86
611,444	5,85
611,779	5,82
612,114	5,82
612,449	5,83
612,784	5,82
613,118	5,78
613,453	5,73
613,788	5,68
614,123	5,65
614,457	5,63
614,792	5,6
615,126	5,56
615,461	5,51
615,795	5,49
616,13	5,46
616,464	5,44
616,798	5,41
617,132	5,39
617,467	5,38
617,801	5,4
618,135	5,4
618,469	5,41
618,803	5,44
619,137	5,45
619,471	5,43
619,805	5,43
620,139	5,45
620,472	5,46
620,806	5,47
621,14	5,45
621,473	5,45
621,807	5,44
622,141	5,46
622,474	5,49
622,808	5,5
623,141	5,53
623,474	5,58
623,808	5,61
624,141	5,65
624,474	5,7
624,807	5,71
625,141	5,71
625,474	5,72
625,807	5,74
626,14	5,77
626,473	5,81
626,806	5,84
627,138	5,84
627,471	5,83
627,804	5,82
628,137	5,83
628,469	5,85
628,802	5,87
629,135	5,88
629,467	5,87
629,8	5,88
630,132	5,86
630,465	5,84
630,797	5,84
631,129	5,82
631,461	5,8
631,794	5,78
632,126	5,78
632,458	5,78
632,79	5,77
633,122	5,77
633,454	5,73
633,786	5,71
634,118	5,69
634,45	5,71
634,781	5,72
635,113	5,71
635,445	5,72
635,777	5,73
636,108	5,73
636,44	5,74
636,771	5,76
637,103	5,76
637,434	5,77
637,765	5,76
638,097	5,73
638,428	5,72
638,759	5,73
639,09	5,76
639,422	5,75
639,753	5,75
640,084	5,73
640,415	5,72
640,746	5,72
641,077	5,75
641,407	5,77
641,738	5,77
642,069	5,79
642,4	5,78
642,73	5,75
643,061	5,74
643,392	5,71
643,722	5,69
644,053	5,7
644,383	5,67
644,713	5,67
645,044	5,7
645,374	5,71
645,704	5,71
646,034	5,67
646,365	5,65
646,695	5,64
647,025	5,7
647,355	5,74
647,685	5,79
648,015	5,81
648,344	5,81
648,674	5,82
649,004	5,81
649,334	5,78
649,663	5,8
649,993	5,82
650,323	5,87
650,652	5,89
650,982	5,89
651,311	5,9
651,64	5,9
651,97	5,91
652,299	5,93
652,628	5,96
652,958	5,97
653,287	6,01
653,616	6,03
653,945	6
654,274	5,98
654,603	5,94
654,932	5,9
655,261	5,88
655,589	5,9
655,918	5,92
656,247	5,98
656,576	5,99
656,904	6,03
657,233	6,06
657,561	6,09
657,89	6,14
658,218	6,19
658,547	6,22
658,875	6,25
659,203	6,24
659,532	6,23
659,86	6,23
660,188	6,22
660,516	6,23
660,844	6,26
661,172	6,28
661,5	6,33
661,828	6,36
662,156	6,37
662,484	6,37
662,811	6,38
663,139	6,36
663,467	6,33
663,794	6,27
664,122	6,25
664,45	6,22
664,777	6,17
665,104	6,11
665,432	6,06
665,759	6,01
666,086	6,02
666,414	6,01
666,741	6,01
667,068	6,03
667,395	6,02
667,722	6,01
668,049	6,01
668,376	5,97
668,703	5,95
669,03	5,99
669,357	6,02
669,683	6,02
670,01	6,04
670,337	6,06
670,663	6,04
670,99	5,99
671,317	5,98
671,643	5,95
671,969	5,93
672,296	5,96
672,622	5,98
672,948	5,95
673,275	5,92
673,601	5,9
673,927	5,88
674,253	5,9
674,579	5,86
674,905	5,81
675,231	5,81
675,557	5,79
675,883	5,76
676,209	5,71
676,534	5,7
676,86	5,69
677,186	5,73
677,511	5,8
677,837	5,88
678,162	5,92
678,488	6,02
678,813	6,11
679,139	6,16
679,464	6,2
679,789	6,24
680,114	6,3
680,44	6,35
680,765	6,35
681,09	6,31
681,415	6,3
681,74	6,33
682,065	6,36
682,39	6,41
682,714	6,42
683,039	6,42
683,364	6,42
683,689	6,41
684,013	6,4
684,338	6,4
684,662	6,37
684,987	6,36
685,311	6,34
685,636	6,32
685,96	6,3
686,284	6,27
686,608	6,19
686,933	6,12
687,257	6,06
687,581	6,08
687,905	6,13
688,229	6,17
688,553	6,17
688,877	6,15
689,201	6,13
689,524	6,15
689,848	6,21
690,172	6,25
690,496	6,29
690,819	6,26
691,143	6,24
691,466	6,24
691,79	6,21
692,113	6,16
692,436	6,14
692,76	6,16
693,083	6,18
693,406	6,26
693,729	6,31
694,053	6,31
694,376	6,3
694,699	6,26
695,022	6,29
695,344	6,32
695,667	6,42
695,99	6,54
696,313	6,62
696,636	6,7
696,958	6,77
697,281	6,83
697,604	6,92
697,926	6,97
698,249	6,98
698,571	6,98
698,893	6,97
699,216	6,96
699,538	6,95
699,86	6,96
700,182	6,98
700,504	7,01
700,827	7,04
701,149	7,05
701,471	7,09
701,793	7,08
702,114	7,09
702,436	7,01
702,758	6,9
703,08	6,79
703,401	6,67
703,723	6,57
704,045	6,48
704,366	6,41
704,688	6,4
705,009	6,43
705,331	6,47
705,652	6,48
705,973	6,49
706,294	6,47
706,616	6,43
706,937	6,4
707,258	6,39
707,579	6,36
707,9	6,32
708,221	6,29
708,542	6,31
708,863	6,33
709,183	6,35
709,504	6,37
709,825	6,38
710,145	6,37
710,466	6,38
710,787	6,4
711,107	6,39
711,427	6,43
711,748	6,46
712,068	6,53
712,388	6,65
712,709	6,77
713,029	6,85
713,349	6,9
713,669	6,92
713,989	6,93
714,309	7,04
714,629	7,17
714,949	7,27
715,269	7,26
715,589	7,3
715,908	7,36
716,228	7,4
716,548	7,48
716,867	7,54
717,187	7,59
717,506	7,69
717,826	7,77
718,145	7,84
718,465	7,92
718,784	7,9
719,103	7,91
719,422	7,86
719,741	7,86
720,061	7,93
720,38	8,08
720,699	8,22
721,018	8,27
721,336	8,3
721,655	8,39
721,974	8,56
722,293	8,64
722,612	8,79
722,93	8,91
723,249	8,97
723,567	9,08
723,886	9,19
724,204	9,25
724,523	9,38
724,841	9,43
725,159	9,52
725,477	9,67
725,796	9,76
726,114	9,89
726,432	10
726,75	10,09
727,068	10,21
727,386	10,37
727,704	10,56
728,022	10,72
728,339	10,88
728,657	10,98
728,975	11,07
729,292	11,09
729,61	11,19
729,928	11,25
730,245	11,32
730,562	11,49
730,88	11,57
731,197	11,61
731,514	11,63
731,832	11,64
732,149	11,68
732,466	11,81
732,783	11,91
733,1	12,03
733,417	12,14
733,734	12,21
734,051	12,2
734,368	12,14
734,684	12,17
735,001	12,19
735,318	12,22
735,634	12,29
735,951	12,34
736,268	12,3
736,584	12,4
736,9	12,52
737,217	12,47
737,533	12,48
737,849	12,61
738,166	12,78
738,482	12,95
738,798	13,1
739,114	13,21
739,43	13,38
739,746	13,49
740,062	13,58
740,378	13,62
740,693	13,77
741,009	14,03
741,325	14,11
741,641	14,18
741,956	14,28
742,272	14,38
742,587	14,44
742,903	14,6
743,218	14,67
743,533	14,78
743,849	14,91
744,164	15,05
744,479	15,15
744,794	15,23
745,109	15,29
745,424	15,34
745,739	15,33
746,054	15,22
746,369	15,22
746,684	15,25
746,999	15,27
747,313	15,24
747,628	15,14
747,943	15,17
748,257	15,15
748,572	15,2
748,886	15,25
749,201	15,41
749,515	15,52
749,829	15,71
750,144	15,84
750,458	15,89
750,772	15,89
751,086	15,86
751,4	15,93
751,714	15,98
752,028	16,01
752,342	16,11
752,656	16,25
752,97	16,42
753,284	16,51
753,597	16,57
753,911	16,62
754,225	16,72
754,538	16,83
754,852	16,93
755,165	16,94
755,478	16,97
755,792	16,98
756,105	17,01
756,418	17,05
756,731	16,96
757,045	17
757,358	17,16
757,671	17,17
757,984	17,17
758,297	17,12
758,609	17,21
758,922	17,22
759,235	17,24
759,548	17,19
759,86	17,11
760,173	17,01
760,486	16,89
760,798	16,69
761,111	16,55
761,423	16,36
761,735	16,28
762,048	16,24
762,36	16,25
762,672	16,27
762,984	16,26
763,296	16,34
763,608	16,48
763,92	16,52
764,232	16,61
764,544	16,67
764,856	16,78
765,168	16,83
765,48	16,94
765,791	17,03
766,103	17,03
766,414	17,11
766,726	17,37
767,037	17,65
767,349	18,04
767,66	18,4
767,972	18,95
768,283	19,42
768,594	19,78
768,905	20,14
769,216	20,44
769,527	20,72
769,838	20,87
770,149	20,87
770,46	21,02
770,771	21,24
771,082	21,39
771,393	21,6
771,703	21,83
772,014	22,01
772,324	22,14
772,635	22,45
772,945	22,65
773,256	22,76
773,566	22,99
773,877	23,19
774,187	23,3
774,497	23,31
774,807	23,29
775,117	23,31
775,427	23,29
775,737	23,43
776,047	23,55
776,357	23,68
776,667	23,88
776,977	24,09
777,287	24,33
777,596	24,48
777,906	24,64
778,216	24,83
778,525	25,06
778,835	25,29
779,144	25,09
779,453	25,21
779,763	25,33
780,072	25,35
780,381	25,52
780,69	25,59
781	25,63
781,309	25,81
781,618	26,12
781,927	26,32
782,235	26,32
782,544	26,4
782,853	26,66
783,162	26,81
783,471	26,71
783,779	26,7
784,088	26,81
784,396	26,77
784,705	26,6
785,013	26,3
785,322	25,91
785,63	26,25
785,938	26,3
786,246	26,12
786,554	26,05
786,863	25,79
787,171	25,71
787,479	25,97
787,787	26,12
788,094	26,14
788,402	26,12
788,71	26,18
789,018	26,09
789,326	25,99
789,633	25,96
789,941	26,17
790,248	26,16
790,556	26,39
790,863	26,47
791,171	26,54
791,478	26,64
791,785	26,93
792,092	26,87
792,399	26,86
792,707	27,09
793,014	27,3
793,321	27,52
793,628	27,86
793,934	27,87
794,241	27,8
794,548	27,82
794,855	27,85
795,161	27,94
795,468	27,98
795,775	28,1
796,081	28,25
796,388	28,31
796,694	28,4
797	28,27
797,307	28,16
797,613	28,12
797,919	28,07
798,225	28,06
798,531	28,08
798,837	28,33
799,143	28,39
799,449	28,38
799,755	28,54
800,061	28,45
800,367	28,39
800,672	28,32
800,978	28,53
801,284	28,76
801,589	28,85
801,895	29,15
802,2	29,27
802,506	29,32
802,811	29,11
803,116	28,95
803,421	28,81
803,727	28,84
804,032	29,02
804,337	29,17
804,642	29,25
804,947	29,53
805,252	29,47
805,556	29,77
805,861	29,97
806,166	29,86
806,471	29,89
806,775	30
807,08	30
807,384	29,91
807,689	29,87
807,993	29,84
808,298	29,9
808,602	30,07
808,906	30,24
809,211	30,47
809,515	30,74
809,819	31,11
810,123	31,64
810,427	32,11
810,731	32,54
811,035	32,83
811,338	32,89
811,642	33,18
811,946	33,05
812,25	33,21
812,553	33,5
812,857	33,69
813,16	33,8
813,464	34,05
813,767	34,14
814,07	34,15
814,374	34,35
814,677	34,34
814,98	34,12
815,283	33,72
815,586	33,46
815,889	33,26
816,192	32,81
816,495	32,29
816,798	31,67
817,101	31,2
817,404	30,82
817,706	30,38
818,009	29,57
818,312	28,63
818,614	27,4
818,917	25,69
819,219	23,65
819,521	21,81
819,824	20,23
820,126	18,95
820,428	18,12
820,73	17,62
821,032	17,16
821,334	16,87
821,636	16,69
821,938	16,58
822,24	16,52
822,542	16,46
822,844	16,45
823,145	16,44
823,447	16,37
823,749	16,31
824,05	16,25
824,352	16,2
824,653	16,25
824,955	16,26
825,256	16,33
825,557	16,54
825,858	16,8
826,16	17,12
826,461	17,6
826,762	18,09
827,063	18,54
827,364	19,13
827,665	19,63
827,965	20,15
828,266	20,62
828,567	20,99
828,868	21,43
829,168	21,74
829,469	21,95
829,769	22,25
830,07	22,56
830,37	22,92
830,67	23,4
830,971	23,69
831,271	24,08
831,571	24,35
831,871	24,74
832,171	25,07
832,471	25,55
832,771	25,76
833,071	25,88
833,371	25,82
833,671	25,73
833,971	25,79
834,27	25,73
834,57	25,92
834,869	26,18
835,169	26,2
835,468	26,23
835,768	26,37
836,067	26,51
836,367	26,78
836,666	27,09
836,965	27,59
837,264	28,22
837,563	28,86
837,862	29,87
838,161	30,7
838,46	31,43
838,759	32,31
839,058	33,28
839,356	34,15
839,655	34,83
839,954	35,6
840,252	36,35
840,551	37,04
840,849	37,57
841,148	37,52
841,446	37,9
841,744	38,45
842,043	38,8
842,341	38,9
842,639	38,95
842,937	39,39
843,235	39,78
843,533	40,3
843,831	41,15
844,129	42,02
844,427	42,43
844,724	43,6
845,022	44,46
845,32	45,68
845,617	46,79
845,915	48,05
846,212	49,29
846,51	50,04
846,807	51,01
847,104	51,8
847,402	52,09
847,699	52,43
847,996	52,68
848,293	52,88
848,59	53,9
848,887	54,59
849,184	54,5
849,481	54,37
849,778	54,47
850,074	55,23
850,371	55,7
850,668	56,22
850,964	55,67
851,261	55,37
851,557	54,84
851,854	55,06
852,15	55,2
852,446	55,21
852,743	55,54
853,039	56,09
853,335	56,25
853,631	57,03
853,927	57,31
854,223	57,25
854,519	57,26
854,815	56,77
855,111	56,41
855,406	56,82
855,702	57,4
855,998	57,31
856,293	56,91
856,589	56,99
856,884	56,65
857,18	57,15
857,475	57,19
857,77	56,98
858,066	56,5
858,361	56,06
858,656	55,91
858,951	55,24
859,246	54,69
859,541	54,43
859,836	54,04
860,131	54,33
860,426	54,97
860,72	55,84
861,015	56,38
861,31	56,83
861,604	56,98
861,899	56,56
862,193	56,62
862,487	56,25
862,782	55,33
863,076	55,63
863,37	55,61
863,664	56,61
863,959	57,68
864,253	57,9
864,547	57,75
864,841	57,33
865,135	57,85
865,428	57,71
865,722	57,29
866,016	57,17
866,31	56,27
866,603	55,42
866,897	54,58
867,19	53,94
867,484	53,6
867,777	53,47
868,07	53,62
868,364	53,36
868,657	53,07
868,95	53,34
869,243	52,86
869,536	52,44
869,829	51,44
870,122	50,25
870,415	49,87
870,708	50,82
871	50,77
871,293	50,2
871,586	50,12
871,878	50,32
872,171	50,43
872,463	50,93
872,756	51,1
873,048	51,22
873,341	51,29
873,633	51,14
873,925	51,09
874,217	50,96
874,509	51,22
874,801	51,72
875,093	52,1
875,385	52,72
875,677	53,12
875,969	53,41
