Data from zc74010_5_Reflection_00004.txt Node
Date: Thu Mar 12 15:02:09 ART 2020
User: Ana
Spectrometer: USB2E3644
Trigger mode: 4
Integration Time (sec): 5,000000E-2
Scans to average: 10
Electric dark correction enabled: true
Nonlinearity correction enabled: false
Boxcar width: 10
XAxis mode: Wavelengths
Number of Pixels in Spectrum: 2048
>>>>>Begin Spectral Data<<<<<
178,315	101,51
178,696	120,16
179,076	134,02
179,457	122,02
179,838	121,9
180,218	142,96
180,599	122,22
180,979	61,29
181,36	130,56
181,74	130,25
182,121	116,67
182,501	108,99
182,881	100,89
183,262	96,31
183,642	94,51
184,022	92,45
184,402	91,32
184,783	89,42
185,163	89,64
185,543	91,69
185,923	93,84
186,303	96,42
186,683	99,92
187,063	102,19
187,443	103,54
187,823	104,26
188,203	102,84
188,583	101,46
188,963	100,55
189,343	98,76
189,723	98,24
190,102	100,13
190,482	104,53
190,862	106,21
191,242	107,04
191,621	106,95
192,001	107,52
192,38	108,56
192,76	109,6
193,14	111,02
193,519	111,89
193,898	112,86
194,278	113,88
194,657	115,47
195,037	115,86
195,416	112,52
195,795	111,39
196,175	112,62
196,554	113,3
196,933	114,16
197,312	115,09
197,692	115,51
198,071	115,09
198,45	114,93
198,829	115,71
199,208	117
199,587	117,42
199,966	116,45
200,345	115,02
200,724	114,25
201,103	113,79
201,482	114,68
201,86	115,74
202,239	114,38
202,618	113,17
202,997	113,09
203,375	114,4
203,754	114,66
204,133	114,91
204,511	114,83
204,89	114,73
205,269	115,56
205,647	115,21
206,026	114,41
206,404	113,8
206,782	112,59
207,161	111,71
207,539	111,21
207,918	112,52
208,296	114,1
208,674	115,54
209,052	116,73
209,431	117,37
209,809	117,11
210,187	117,25
210,565	117,25
210,943	116,99
211,321	117,22
211,699	118,94
212,077	119,82
212,455	119,69
212,833	120,09
213,211	119,96
213,589	120,77
213,967	121,51
214,345	122,09
214,722	124,11
215,1	125,18
215,478	126,02
215,855	126,39
216,233	126,7
216,611	127,46
216,988	127,2
217,366	125,99
217,743	125,96
218,121	127,35
218,498	128,7
218,876	128,62
219,253	127,1
219,631	125,25
220,008	124,12
220,385	124,26
220,762	123,56
221,14	122,1
221,517	120,61
221,894	120,05
222,271	119,17
222,648	117,91
223,025	117,21
223,402	117,02
223,78	116,56
224,157	115,89
224,533	114,38
224,91	114,76
225,287	116,63
225,664	118,8
226,041	119,64
226,418	120,35
226,795	121,8
227,171	123,41
227,548	125,19
227,925	126,19
228,301	127,43
228,678	129,41
229,055	132,17
229,431	134,73
229,808	137,03
230,184	138,15
230,561	139,18
230,937	140,7
231,313	142,26
231,69	144,15
232,066	147,34
232,442	150,58
232,819	151,19
233,195	149,54
233,571	148,29
233,947	150,02
234,323	151,25
234,699	151,45
235,075	152,78
235,451	154,2
235,827	156,22
236,203	158,28
236,579	160,61
236,955	164,61
237,331	172,43
237,707	183,31
238,083	197,23
238,459	214,72
238,834	243,1
239,21	286,68
239,586	345,06
239,961	408,11
240,337	476,41
240,713	541,78
241,088	618,74
241,464	711,81
241,839	833,11
242,215	1110,23
242,59	2621,77
242,965	-1612,08
243,341	-458,19
243,716	-247,73
244,091	-176,88
244,467	-145,6
244,842	-127,61
245,217	-115,74
245,592	-109,76
245,967	-108,78
246,343	-105,95
246,718	-104,02
247,093	-106,62
247,468	-109,22
247,843	-109,02
248,218	-104,59
248,593	-97,11
248,967	-89,78
249,342	-86,43
249,717	-84,68
250,092	-83,45
250,467	-84,18
250,841	-89,61
251,216	-102,7
251,591	-123,94
251,965	-147,9
252,34	-166,23
252,714	-185,62
253,089	-198,37
253,463	-207,22
253,838	-204,41
254,212	-198,5
254,587	-187,35
254,961	-165,4
255,335	-140,69
255,71	-116,13
256,084	-90,88
256,458	-72,54
256,832	-61,43
257,206	-55,22
257,581	-52,12
257,955	-50,12
258,329	-48,19
258,703	-45,65
259,077	-43,46
259,451	-41,68
259,825	-40,94
260,199	-41,14
260,572	-40,68
260,946	-40,89
261,32	-40,31
261,694	-39,45
262,068	-38,86
262,441	-38,22
262,815	-37,92
263,189	-37,57
263,562	-38,05
263,936	-40,45
264,309	-44,29
264,683	-48,56
265,056	-50,56
265,43	-51,3
265,803	-51,35
266,176	-50,94
266,55	-50,99
266,923	-50,47
267,296	-49,74
267,67	-47,81
268,043	-45,87
268,416	-43,52
268,789	-40,92
269,162	-38,71
269,535	-36,98
269,908	-35,74
270,281	-35,04
270,654	-35,02
271,027	-35,46
271,4	-35,69
271,773	-35,56
272,146	-35,58
272,519	-35,5
272,891	-35,63
273,264	-35,69
273,637	-35,45
274,01	-35,03
274,382	-35,25
274,755	-35,36
275,127	-35,32
275,5	-35,69
275,872	-35,83
276,245	-35,97
276,617	-36,64
276,99	-37,4
277,362	-38,28
277,734	-38,83
278,107	-38,78
278,479	-38,4
278,851	-37,9
279,223	-37,52
279,596	-36,88
279,968	-36,38
280,34	-35,61
280,712	-34,83
281,084	-33,47
281,456	-31,99
281,828	-30,67
282,2	-28,53
282,572	-26,77
282,944	-25,54
283,315	-24,72
283,687	-24,05
284,059	-23,73
284,431	-23,37
284,802	-22,82
285,174	-22,27
285,546	-21,71
285,917	-21,09
286,289	-20,53
286,66	-20,19
287,032	-19,74
287,403	-19,58
287,775	-19,56
288,146	-19,77
288,518	-20,01
288,889	-20,09
289,26	-20,27
289,632	-20,81
290,003	-21,69
290,374	-22,38
290,745	-22,7
291,116	-22,78
291,487	-22,88
291,858	-22,99
292,229	-23,05
292,6	-22,95
292,971	-22,39
293,342	-21,65
293,713	-20,74
294,084	-19,91
294,455	-18,99
294,826	-18,51
295,196	-18,23
295,567	-18,09
295,938	-17,74
296,308	-17,29
296,679	-16,94
297,05	-16,64
297,42	-16,17
297,791	-15,69
298,161	-15,54
298,532	-15,25
298,902	-14,8
299,272	-14,33
299,643	-13,99
300,013	-13,49
300,383	-13,07
300,754	-13,05
301,124	-13,32
301,494	-13,76
301,864	-14,2
302,234	-14,68
302,604	-14,89
302,974	-14,98
303,344	-14,83
303,714	-14,59
304,084	-14,28
304,454	-14,25
304,824	-14,15
305,194	-14,11
305,563	-14,03
305,933	-13,66
306,303	-13,38
306,673	-13,11
307,042	-12,68
307,412	-11,98
307,781	-11,39
308,151	-11,03
308,521	-10,72
308,89	-10,38
309,259	-10,35
309,629	-10,29
309,998	-10,17
310,368	-10,08
310,737	-9,93
311,106	-9,86
311,475	-9,8
311,845	-9,85
312,214	-9,75
312,583	-9,76
312,952	-9,73
313,321	-9,65
313,69	-9,43
314,059	-9,3
314,428	-9,37
314,797	-9,65
315,166	-10,2
315,535	-10,73
315,904	-11,16
316,272	-11,47
316,641	-11,74
317,01	-11,68
317,379	-11,62
317,747	-11,39
318,116	-10,98
318,484	-10,71
318,853	-10,42
319,221	-10,14
319,59	-10,02
319,958	-9,76
320,327	-9,43
320,695	-9,25
321,063	-9,03
321,432	-8,87
321,8	-8,61
322,168	-8,46
322,536	-8,4
322,905	-8,05
323,273	-7,76
323,641	-7,56
324,009	-7,38
324,377	-7,15
324,745	-6,92
325,113	-6,61
325,481	-6,41
325,849	-6,39
326,216	-6,4
326,584	-6,35
326,952	-6,3
327,32	-6,15
327,687	-6,13
328,055	-6,03
328,423	-5,87
328,79	-5,83
329,158	-5,87
329,525	-5,97
329,893	-5,95
330,26	-5,74
330,628	-5,61
330,995	-5,49
331,362	-5,45
331,73	-5,44
332,097	-5,43
332,464	-5,42
332,831	-5,39
333,199	-5,36
333,566	-5,26
333,933	-4,99
334,3	-4,76
334,667	-4,66
335,034	-4,59
335,401	-4,57
335,768	-4,58
336,135	-4,56
336,502	-4,51
336,868	-4,42
337,235	-4,31
337,602	-4,18
337,969	-4,08
338,335	-3,97
338,702	-3,79
339,069	-3,63
339,435	-3,54
339,802	-3,39
340,168	-3,3
340,535	-3,21
340,901	-3,24
341,267	-3,24
341,634	-3,22
342	-3,2
342,366	-3,1
342,733	-2,97
343,099	-2,7
343,465	-2,62
343,831	-2,61
344,197	-2,53
344,563	-2,47
344,929	-2,42
345,295	-2,31
345,661	-2,2
346,027	-2,15
346,393	-2,19
346,759	-2,13
347,125	-2,02
347,491	-1,98
347,856	-1,95
348,222	-1,98
348,588	-1,82
348,953	-1,65
349,319	-1,61
349,684	-1,56
350,05	-1,55
350,415	-1,51
350,781	-1,52
351,146	-1,45
351,512	-1,29
351,877	-1,21
352,242	-1,18
352,608	-1,11
352,973	-1,02
353,338	-0,91
353,703	-0,77
354,068	-0,69
354,433	-0,61
354,798	-0,54
355,164	-0,47
355,528	-0,36
355,893	-0,27
356,258	-0,28
356,623	-0,24
356,988	-0,13
357,353	-0,05
357,718	-0
358,082	0,03
358,447	0,07
358,812	0,16
359,176	0,23
359,541	0,32
359,905	0,41
360,27	0,43
360,634	0,41
360,999	0,4
361,363	0,39
361,728	0,46
362,092	0,53
362,456	0,61
362,821	0,7
363,185	0,77
363,549	0,88
363,913	0,96
364,277	0,99
364,641	0,98
365,005	1,06
365,369	1,14
365,733	1,24
366,097	1,32
366,461	1,37
366,825	1,43
367,189	1,44
367,553	1,51
367,916	1,67
368,28	1,82
368,644	1,9
369,007	1,98
369,371	2,06
369,734	2,15
370,098	2,22
370,461	2,28
370,825	2,34
371,188	2,39
371,552	2,47
371,915	2,53
372,278	2,63
372,642	2,69
373,005	2,76
373,368	2,86
373,731	2,94
374,094	3,05
374,457	3,16
374,82	3,3
375,183	3,4
375,546	3,48
375,909	3,54
376,272	3,62
376,635	3,7
376,998	3,76
377,361	3,83
377,723	3,93
378,086	4,02
378,449	4,08
378,811	4,15
379,174	4,23
379,537	4,31
379,899	4,37
380,262	4,42
380,624	4,46
380,987	4,49
381,349	4,56
381,711	4,61
382,074	4,67
382,436	4,74
382,798	4,84
383,16	4,84
383,522	4,85
383,884	4,89
384,247	4,94
384,609	5,01
384,971	5,04
385,333	5,05
385,695	5,06
386,056	5,09
386,418	5,08
386,78	5,07
387,142	5,09
387,504	5,12
387,865	5,16
388,227	5,2
388,589	5,25
388,95	5,27
389,312	5,27
389,673	5,26
390,035	5,24
390,396	5,21
390,758	5,26
391,119	5,28
391,48	5,3
391,842	5,31
392,203	5,31
392,564	5,31
392,925	5,34
393,286	5,38
393,648	5,41
394,009	5,47
394,37	5,49
394,731	5,53
395,092	5,55
395,452	5,55
395,813	5,57
396,174	5,56
396,535	5,58
396,896	5,57
397,257	5,6
397,617	5,63
397,978	5,63
398,338	5,64
398,699	5,67
399,06	5,71
399,42	5,73
399,781	5,74
400,141	5,77
400,501	5,74
400,862	5,74
401,222	5,75
401,582	5,74
401,943	5,78
402,303	5,77
402,663	5,78
403,023	5,8
403,383	5,83
403,743	5,84
404,103	5,88
404,463	5,92
404,823	5,99
405,183	6,01
405,543	6,04
405,903	6,02
406,262	6
406,622	5,95
406,982	5,96
407,342	5,98
407,701	6
408,061	6,02
408,42	6,04
408,78	6,05
409,139	6,06
409,499	6,06
409,858	6,06
410,217	6,09
410,577	6,1
410,936	6,09
411,295	6,09
411,655	6,07
412,014	6,05
412,373	5,99
412,732	5,93
413,091	5,9
413,45	5,89
413,809	5,87
414,168	5,84
414,527	5,79
414,886	5,74
415,245	5,7
415,603	5,67
415,962	5,63
416,321	5,59
416,679	5,56
417,038	5,52
417,397	5,47
417,755	5,42
418,114	5,39
418,472	5,37
418,831	5,35
419,189	5,34
419,547	5,33
419,906	5,32
420,264	5,3
420,622	5,27
420,981	5,27
421,339	5,27
421,697	5,27
422,055	5,3
422,413	5,31
422,771	5,33
423,129	5,34
423,487	5,37
423,845	5,4
424,203	5,41
424,56	5,45
424,918	5,47
425,276	5,52
425,634	5,55
425,991	5,58
426,349	5,62
426,707	5,64
427,064	5,68
427,422	5,7
427,779	5,76
428,137	5,83
428,494	5,89
428,851	5,94
429,209	5,96
429,566	5,94
429,923	5,94
430,28	5,93
430,637	5,93
430,995	5,9
431,352	5,88
431,709	5,89
432,066	5,9
432,423	5,91
432,78	5,91
433,137	5,9
433,493	5,89
433,85	5,89
434,207	5,87
434,564	5,84
434,92	5,85
435,277	5,85
435,634	5,83
435,99	5,79
436,347	5,77
436,703	5,79
437,06	5,78
437,416	5,79
437,773	5,79
438,129	5,79
438,485	5,82
438,841	5,82
439,198	5,82
439,554	5,81
439,91	5,82
440,266	5,83
440,622	5,84
440,978	5,84
441,334	5,8
441,69	5,79
442,046	5,79
442,402	5,77
442,758	5,76
443,113	5,75
443,469	5,74
443,825	5,74
444,181	5,74
444,536	5,76
444,892	5,76
445,247	5,76
445,603	5,77
445,958	5,77
446,314	5,78
446,669	5,79
447,025	5,79
447,38	5,8
447,735	5,81
448,09	5,81
448,446	5,83
448,801	5,85
449,156	5,89
449,511	5,92
449,866	5,95
450,221	5,99
450,576	6,04
450,931	6,09
451,286	6,13
451,641	6,16
451,995	6,2
452,35	6,24
452,705	6,25
453,06	6,26
453,414	6,27
453,769	6,28
454,123	6,28
454,478	6,29
454,832	6,29
455,187	6,27
455,541	6,25
455,896	6,21
456,25	6,2
456,604	6,17
456,958	6,14
457,313	6,14
457,667	6,12
458,021	6,12
458,375	6,13
458,729	6,14
459,083	6,16
459,437	6,16
459,791	6,15
460,145	6,16
460,499	6,17
460,852	6,16
461,206	6,16
461,56	6,16
461,914	6,17
462,267	6,17
462,621	6,19
462,974	6,22
463,328	6,26
463,681	6,29
464,035	6,33
464,388	6,37
464,742	6,39
465,095	6,42
465,448	6,44
465,801	6,42
466,155	6,39
466,508	6,38
466,861	6,37
467,214	6,38
467,567	6,38
467,92	6,39
468,273	6,4
468,626	6,43
468,979	6,43
469,332	6,43
469,684	6,43
470,037	6,44
470,39	6,45
470,743	6,46
471,095	6,47
471,448	6,48
471,8	6,49
472,153	6,52
472,505	6,52
472,858	6,52
473,21	6,54
473,562	6,57
473,915	6,58
474,267	6,59
474,619	6,58
474,971	6,59
475,324	6,58
475,676	6,59
476,028	6,58
476,38	6,59
476,732	6,62
477,084	6,63
477,436	6,61
477,787	6,6
478,139	6,61
478,491	6,61
478,843	6,6
479,195	6,58
479,546	6,54
479,898	6,53
480,249	6,48
480,601	6,44
480,952	6,41
481,304	6,4
481,655	6,39
482,007	6,39
482,358	6,37
482,709	6,38
483,061	6,37
483,412	6,36
483,763	6,36
484,114	6,35
484,465	6,33
484,816	6,34
485,167	6,33
485,518	6,34
485,869	6,34
486,22	6,35
486,571	6,35
486,922	6,36
487,272	6,37
487,623	6,39
487,974	6,43
488,324	6,45
488,675	6,45
489,025	6,47
489,376	6,49
489,726	6,51
490,077	6,52
490,427	6,54
490,778	6,56
491,128	6,58
491,478	6,61
491,828	6,65
492,179	6,68
492,529	6,71
492,879	6,72
493,229	6,74
493,579	6,75
493,929	6,77
494,279	6,8
494,629	6,8
494,979	6,84
495,328	6,87
495,678	6,91
496,028	6,98
496,378	7,01
496,727	7,03
497,077	7,06
497,426	7,08
497,776	7,1
498,125	7,12
498,475	7,15
498,824	7,15
499,174	7,16
499,523	7,18
499,872	7,2
500,221	7,23
500,571	7,25
500,92	7,28
501,269	7,3
501,618	7,33
501,967	7,37
502,316	7,38
502,665	7,39
503,014	7,4
503,363	7,4
503,711	7,43
504,06	7,45
504,409	7,46
504,758	7,47
505,106	7,47
505,455	7,48
505,803	7,48
506,152	7,47
506,5	7,48
506,849	7,49
507,197	7,5
507,546	7,53
507,894	7,54
508,242	7,55
508,59	7,55
508,939	7,53
509,287	7,55
509,635	7,56
509,983	7,59
510,331	7,62
510,679	7,64
511,027	7,64
511,375	7,65
511,723	7,68
512,07	7,7
512,418	7,73
512,766	7,75
513,114	7,78
513,461	7,83
513,809	7,86
514,156	7,87
514,504	7,88
514,851	7,87
515,199	7,87
515,546	7,86
515,893	7,88
516,241	7,9
516,588	7,91
516,935	7,92
517,282	7,93
517,63	7,94
517,977	7,95
518,324	7,97
518,671	8
519,018	8,02
519,365	8,03
519,711	8,04
520,058	8,08
520,405	8,09
520,752	8,1
521,099	8,1
521,445	8,13
521,792	8,17
522,138	8,2
522,485	8,22
522,832	8,25
523,178	8,27
523,524	8,29
523,871	8,3
524,217	8,32
524,563	8,33
524,91	8,33
525,256	8,3
525,602	8,32
525,948	8,3
526,294	8,29
526,64	8,29
526,986	8,29
527,332	8,29
527,678	8,28
528,024	8,3
528,37	8,33
528,716	8,33
529,061	8,33
529,407	8,34
529,753	8,36
530,098	8,37
530,444	8,39
530,789	8,39
531,135	8,42
531,48	8,43
531,826	8,45
532,171	8,47
532,516	8,52
532,862	8,55
533,207	8,59
533,552	8,64
533,897	8,67
534,242	8,7
534,587	8,73
534,932	8,78
535,277	8,79
535,622	8,81
535,967	8,86
536,312	8,89
536,657	8,94
537,001	8,98
537,346	9,05
537,691	9,09
538,035	9,12
538,38	9,13
538,724	9,15
539,069	9,17
539,413	9,2
539,758	9,21
540,102	9,23
540,446	9,24
540,791	9,26
541,135	9,29
541,479	9,32
541,823	9,34
542,167	9,35
542,512	9,38
542,856	9,38
543,2	9,38
543,543	9,39
543,887	9,4
544,231	9,43
544,575	9,44
544,919	9,48
545,262	9,53
545,606	9,58
545,95	9,62
546,293	9,65
546,637	9,68
546,98	9,72
547,324	9,76
547,667	9,82
548,011	9,84
548,354	9,86
548,697	9,86
549,04	9,89
549,384	9,92
549,727	9,91
550,07	9,95
550,413	9,99
550,756	10,01
551,099	10,02
551,442	10,03
551,785	10,06
552,128	10,07
552,47	10,08
552,813	10,1
553,156	10,12
553,499	10,15
553,841	10,16
554,184	10,17
554,526	10,17
554,869	10,16
555,211	10,19
555,554	10,19
555,896	10,21
556,238	10,21
556,581	10,19
556,923	10,2
557,265	10,21
557,607	10,22
557,949	10,25
558,291	10,28
558,633	10,26
558,975	10,26
559,317	10,29
559,659	10,28
560,001	10,26
560,343	10,28
560,685	10,27
561,026	10,28
561,368	10,3
561,71	10,32
562,051	10,32
562,393	10,35
562,734	10,38
563,076	10,4
563,417	10,43
563,759	10,47
564,1	10,51
564,441	10,52
564,782	10,54
565,124	10,53
565,465	10,54
565,806	10,57
566,147	10,6
566,488	10,6
566,829	10,64
567,17	10,66
567,511	10,67
567,851	10,7
568,192	10,71
568,533	10,7
568,874	10,72
569,214	10,76
569,555	10,76
569,895	10,76
570,236	10,77
570,576	10,77
570,917	10,78
571,257	10,78
571,598	10,8
571,938	10,84
572,278	10,88
572,618	10,92
572,959	10,94
573,299	10,95
573,639	10,96
573,979	10,96
574,319	10,97
574,659	10,96
574,999	10,98
575,339	10,98
575,678	11,03
576,018	11,04
576,358	11,04
576,698	11,06
577,037	11,1
577,377	11,13
577,716	11,15
578,056	11,15
578,395	11,14
578,735	11,13
579,074	11,13
579,413	11,12
579,753	11,12
580,092	11,1
580,431	11,1
580,77	11,11
581,109	11,11
581,448	11,13
581,787	11,16
582,126	11,17
582,465	11,22
582,804	11,22
583,143	11,24
583,482	11,28
583,82	11,28
584,159	11,31
584,498	11,31
584,836	11,34
585,175	11,38
585,514	11,44
585,852	11,49
586,19	11,52
586,529	11,53
586,867	11,57
587,205	11,63
587,544	11,7
587,882	11,77
588,22	11,8
588,558	11,84
588,896	11,87
589,234	11,89
589,572	11,92
589,91	11,93
590,248	11,95
590,586	11,98
590,924	12,02
591,262	12,04
591,599	12,08
591,937	12,12
592,275	12,14
592,612	12,16
592,95	12,2
593,287	12,23
593,625	12,29
593,962	12,33
594,299	12,39
594,637	12,44
594,974	12,48
595,311	12,55
595,648	12,58
595,985	12,61
596,322	12,61
596,659	12,65
596,996	12,71
597,333	12,74
597,67	12,76
598,007	12,77
598,344	12,8
598,681	12,88
599,017	12,9
599,354	12,95
599,691	12,99
600,027	13,03
600,364	13,09
600,7	13,15
601,037	13,21
601,373	13,28
601,71	13,32
602,046	13,36
602,382	13,38
602,718	13,44
603,054	13,49
603,391	13,55
603,727	13,56
604,063	13,58
604,399	13,62
604,735	13,65
605,071	13,68
605,406	13,71
605,742	13,73
606,078	13,82
606,414	13,87
606,749	13,93
607,085	13,98
607,421	14,01
607,756	14,04
608,092	14,04
608,427	14,03
608,762	14,05
609,098	14,04
609,433	14,06
609,768	14,05
610,104	14,07
610,439	14,1
610,774	14,12
611,109	14,14
611,444	14,17
611,779	14,19
612,114	14,23
612,449	14,26
612,784	14,26
613,118	14,21
613,453	14,19
613,788	14,15
614,123	14,13
614,457	14,14
614,792	14,14
615,126	14,21
615,461	14,24
615,795	14,28
616,13	14,27
616,464	14,31
616,798	14,31
617,132	14,33
617,467	14,32
617,801	14,34
618,135	14,4
618,469	14,42
618,803	14,48
619,137	14,5
619,471	14,54
619,805	14,58
620,139	14,61
620,472	14,66
620,806	14,73
621,14	14,78
621,473	14,78
621,807	14,82
622,141	14,83
622,474	14,8
622,808	14,85
623,141	14,96
623,474	15,01
623,808	15,11
624,141	15,19
624,474	15,3
624,807	15,36
625,141	15,39
625,474	15,45
625,807	15,47
626,14	15,48
626,473	15,5
626,806	15,55
627,138	15,58
627,471	15,61
627,804	15,67
628,137	15,71
628,469	15,75
628,802	15,78
629,135	15,81
629,467	15,89
629,8	15,92
630,132	15,92
630,465	15,93
630,797	15,93
631,129	15,94
631,461	15,98
631,794	15,98
632,126	15,99
632,458	16
632,79	16,06
633,122	16,15
633,454	16,17
633,786	16,18
634,118	16,21
634,45	16,29
634,781	16,29
635,113	16,31
635,445	16,35
635,777	16,42
636,108	16,48
636,44	16,5
636,771	16,51
637,103	16,53
637,434	16,57
637,765	16,62
638,097	16,65
638,428	16,63
638,759	16,64
639,09	16,67
639,422	16,7
639,753	16,7
640,084	16,72
640,415	16,77
640,746	16,8
641,077	16,84
641,407	16,83
641,738	16,88
642,069	16,92
642,4	16,95
642,73	16,96
643,061	16,98
643,392	17,01
643,722	17,06
644,053	17,11
644,383	17,16
644,713	17,16
645,044	17,2
645,374	17,29
645,704	17,33
646,034	17,37
646,365	17,38
646,695	17,45
647,025	17,51
647,355	17,56
647,685	17,64
648,015	17,67
648,344	17,72
648,674	17,72
649,004	17,71
649,334	17,75
649,663	17,79
649,993	17,8
650,323	17,86
650,652	17,87
650,982	17,91
651,311	17,95
651,64	18,01
651,97	18,05
652,299	18,06
652,628	18,14
652,958	18,15
653,287	18,26
653,616	18,26
653,945	18,26
654,274	18,3
654,603	18,26
654,932	18,31
655,261	18,37
655,589	18,44
655,918	18,52
656,247	18,58
656,576	18,69
656,904	18,81
657,233	18,87
657,561	18,89
657,89	18,95
658,218	19
658,547	19,02
658,875	19,06
659,203	19,12
659,532	19,16
659,86	19,26
660,188	19,26
660,516	19,34
660,844	19,41
661,172	19,45
661,5	19,59
661,828	19,64
662,156	19,66
662,484	19,71
662,811	19,75
663,139	19,79
663,467	19,76
663,794	19,74
664,122	19,78
664,45	19,82
664,777	19,86
665,104	19,92
665,432	19,97
665,759	19,98
666,086	20,03
666,414	20,03
666,741	20
667,068	20,04
667,395	20,06
667,722	20,08
668,049	20,12
668,376	20,12
668,703	20,15
669,03	20,21
669,357	20,22
669,683	20,25
670,01	20,29
670,337	20,31
670,663	20,36
670,99	20,37
671,317	20,45
671,643	20,47
671,969	20,48
672,296	20,48
672,622	20,59
672,948	20,6
673,275	20,57
673,601	20,61
673,927	20,58
674,253	20,6
674,579	20,63
674,905	20,61
675,231	20,6
675,557	20,62
675,883	20,61
676,209	20,62
676,534	20,65
676,86	20,68
677,186	20,74
677,511	20,72
677,837	20,72
678,162	20,69
678,488	20,72
678,813	20,78
679,139	20,86
679,464	20,9
679,789	20,92
680,114	20,99
680,44	21,07
680,765	21,14
681,09	21,15
681,415	21,12
681,74	21,16
682,065	21,2
682,39	21,26
682,714	21,29
683,039	21,34
683,364	21,37
683,689	21,38
684,013	21,38
684,338	21,43
684,662	21,5
684,987	21,61
685,311	21,64
685,636	21,66
685,96	21,63
686,284	21,58
686,608	21,54
686,933	21,56
687,257	21,52
687,581	21,54
687,905	21,56
688,229	21,55
688,553	21,54
688,877	21,54
689,201	21,55
689,524	21,61
689,848	21,67
690,172	21,68
690,496	21,72
690,819	21,77
691,143	21,83
691,466	21,86
691,79	21,88
692,113	21,95
692,436	21,95
692,76	21,99
693,083	22,01
693,406	22,1
693,729	22,1
694,053	22,19
694,376	22,24
694,699	22,27
695,022	22,43
695,344	22,53
695,667	22,64
695,99	22,74
696,313	22,81
696,636	22,88
696,958	22,95
697,281	23,08
697,604	23,14
697,926	23,2
698,249	23,25
698,571	23,28
698,893	23,26
699,216	23,3
699,538	23,34
699,86	23,43
700,182	23,49
700,504	23,59
700,827	23,64
701,149	23,65
701,471	23,73
701,793	23,73
702,114	23,75
702,436	23,68
702,758	23,6
703,08	23,57
703,401	23,56
703,723	23,54
704,045	23,5
704,366	23,47
704,688	23,45
705,009	23,38
705,331	23,34
705,652	23,42
705,973	23,45
706,294	23,45
706,616	23,36
706,937	23,34
707,258	23,26
707,579	23,23
707,9	23,29
708,221	23,33
708,542	23,44
708,863	23,51
709,183	23,61
709,504	23,75
709,825	23,86
710,145	23,87
710,466	23,86
710,787	23,84
711,107	23,92
711,427	23,96
711,748	24,06
712,068	24,19
712,388	24,27
712,709	24,36
713,029	24,46
713,349	24,59
713,669	24,68
713,989	24,84
714,309	25
714,629	25,03
714,949	25,05
715,269	25
715,589	25,01
715,908	25,02
716,228	25,02
716,548	25,03
716,867	25,06
717,187	25,17
717,506	25,26
717,826	25,28
718,145	25,31
718,465	25,37
718,784	25,29
719,103	25,29
719,422	25,3
719,741	25,32
720,061	25,36
720,38	25,49
720,699	25,5
721,018	25,44
721,336	25,49
721,655	25,6
721,974	25,79
722,293	25,92
722,612	26,09
722,93	26,19
723,249	26,22
723,567	26,39
723,886	26,63
724,204	26,77
724,523	26,89
724,841	27,03
725,159	27,15
725,477	27,38
725,796	27,46
726,114	27,62
726,432	27,88
726,75	28,03
727,068	28,13
727,386	28,35
727,704	28,54
728,022	28,74
728,339	28,87
728,657	28,92
728,975	29
729,292	29,12
729,61	29,18
729,928	29,38
730,245	29,51
730,562	29,54
730,88	29,68
731,197	29,84
731,514	29,99
731,832	30,11
732,149	30,17
732,466	30,32
732,783	30,41
733,1	30,44
733,417	30,52
733,734	30,61
734,051	30,68
734,368	30,69
734,684	30,78
735,001	30,91
735,318	31
735,634	31,12
735,951	31,22
736,268	31,43
736,584	31,52
736,9	31,6
737,217	31,7
737,533	31,75
737,849	31,83
738,166	31,88
738,482	31,98
738,798	32,02
739,114	32,08
739,43	32,23
739,746	32,33
740,062	32,4
740,378	32,57
740,693	32,74
741,009	33,05
741,325	33,2
741,641	33,19
741,956	33,32
742,272	33,47
742,587	33,61
742,903	33,71
743,218	33,77
743,533	33,86
743,849	33,91
744,164	33,91
744,479	33,98
744,794	33,98
745,109	33,99
745,424	34,2
745,739	34,28
746,054	34,33
746,369	34,34
746,684	34,47
746,999	34,49
747,313	34,44
747,628	34,35
747,943	34,29
748,257	34,4
748,572	34,52
748,886	34,68
749,201	34,82
749,515	34,93
749,829	35,08
750,144	35,23
750,458	35,32
750,772	35,49
751,086	35,56
751,4	35,74
751,714	35,86
752,028	35,96
752,342	36,1
752,656	36,19
752,97	36,31
753,284	36,38
753,597	36,49
753,911	36,62
754,225	36,71
754,538	36,92
754,852	37,03
755,165	37,14
755,478	37,12
755,792	37,07
756,105	37,1
756,418	37,11
756,731	37,16
757,045	37,36
757,358	37,49
757,671	37,64
757,984	37,7
758,297	37,77
758,609	37,76
758,922	37,7
759,235	37,75
759,548	37,89
759,86	37,9
760,173	37,73
760,486	37,64
760,798	37,58
761,111	37,38
761,423	37,3
761,735	37,24
762,048	37,31
762,36	37,37
762,672	37,39
762,984	37,49
763,296	37,51
763,608	37,63
763,92	37,73
764,232	37,7
764,544	37,75
764,856	37,81
765,168	37,96
765,48	38,19
765,791	38,21
766,103	38,22
766,414	38,33
766,726	38,61
767,037	38,86
767,349	39,15
767,66	39,53
767,972	39,91
768,283	40,31
768,594	40,56
768,905	40,79
769,216	41,1
769,527	41,35
769,838	41,52
770,149	41,56
770,46	41,66
770,771	42,02
771,082	42,37
771,393	42,67
771,703	42,75
772,014	42,98
772,324	43,07
772,635	43,02
772,945	43,14
773,256	43,32
773,566	43,31
773,877	43,37
774,187	43,44
774,497	43,61
774,807	43,66
775,117	43,68
775,427	43,71
775,737	43,62
776,047	43,66
776,357	43,76
776,667	43,76
776,977	43,8
777,287	43,92
777,596	43,84
777,906	43,9
778,216	44,09
778,525	44,13
778,835	44,48
779,144	45,02
779,453	45,41
779,763	45,56
780,072	45,53
780,381	45,62
780,69	45,65
781	45,71
781,309	45,81
781,618	45,82
781,927	46,05
782,235	46,23
782,544	46,42
782,853	46,78
783,162	46,95
783,471	46,92
783,779	47
784,088	47,1
784,396	47,17
784,705	47,12
785,013	46,85
785,322	46,64
785,63	46,51
785,938	46,36
786,246	46,19
786,554	46,3
786,863	46,47
787,171	46,7
787,479	46,85
787,787	46,92
788,094	47,22
788,402	47,2
788,71	47,31
789,018	47,32
789,326	47,26
789,633	47,28
789,941	47,42
790,248	47,39
790,556	47,43
790,863	47,51
791,171	47,52
791,478	47,74
791,785	48,08
792,092	48,09
792,399	48,16
792,707	48,42
793,014	48,61
793,321	48,64
793,628	48,66
793,934	48,6
794,241	48,69
794,548	48,66
794,855	48,9
795,161	49,13
795,468	49,21
795,775	49,36
796,081	49,52
796,388	49,68
796,694	49,83
797	50
797,307	50,11
797,613	50,23
797,919	50,35
798,225	50,3
798,531	50,48
798,837	50,64
799,143	50,78
799,449	50,76
799,755	50,96
800,061	50,95
800,367	50,99
800,672	51,09
800,978	51,08
801,284	51,1
801,589	50,96
801,895	50,87
802,2	50,93
802,506	51,13
802,811	51,05
803,116	51,1
803,421	50,95
803,727	50,92
804,032	51,01
804,337	51,02
804,642	51,12
804,947	51,26
805,252	51,16
805,556	51,14
805,861	51,5
806,166	51,69
806,471	51,93
806,775	52,15
807,08	52,2
807,384	52,06
807,689	52,09
807,993	52,3
808,298	52,49
808,602	52,43
808,906	52,4
809,211	52,45
809,515	52,42
809,819	52,64
810,123	52,83
810,427	52,9
810,731	52,9
811,035	52,83
811,338	52,6
811,642	52,73
811,946	52,71
812,25	52,46
812,553	52,3
812,857	52,26
813,16	52,42
813,464	52,28
813,767	52,49
814,07	52,63
814,374	52,6
814,677	52,58
814,98	52,59
815,283	52,35
815,586	52,2
815,889	52,21
816,192	52,15
816,495	51,96
816,798	51,84
817,101	51,58
817,404	51,35
817,706	50,89
818,009	50,39
818,312	49,69
818,614	48,97
818,917	47,34
819,219	45,75
819,521	44,44
819,824	43,53
820,126	42,78
820,428	42,08
820,73	41,61
821,032	41,23
821,334	41,05
821,636	40,99
821,938	40,99
822,24	40,9
822,542	40,87
822,844	40,89
823,145	40,85
823,447	40,81
823,749	40,77
824,05	40,76
824,352	40,73
824,653	40,79
824,955	40,82
825,256	41,03
825,557	41,23
825,858	41,43
826,16	41,66
826,461	41,97
826,762	42,38
827,063	42,84
827,364	43,42
827,665	43,9
827,965	44,23
828,266	44,53
828,567	44,84
828,868	45,05
829,168	45,15
829,469	45,31
829,769	45,65
830,07	45,93
830,37	46,32
830,67	46,72
830,971	46,82
831,271	47,05
831,571	47,06
831,871	47,25
832,171	47,43
832,471	47,48
832,771	47,65
833,071	47,76
833,371	47,85
833,671	47,79
833,971	47,57
834,27	47,52
834,57	47,61
834,869	47,76
835,169	47,95
835,468	48,1
835,768	48,29
836,067	48,41
836,367	48,67
836,666	49,01
836,965	49,42
837,264	50,12
837,563	50,87
837,862	51,77
838,161	52,45
838,46	53,06
838,759	53,66
839,058	54,14
839,356	54,87
839,655	55,21
839,954	55,53
840,252	55,98
840,551	56,38
840,849	56,7
841,148	56,82
841,446	56,94
841,744	56,98
842,043	57,11
842,341	57,24
842,639	57,15
842,937	57,09
843,235	56,92
843,533	56,75
843,831	56,72
844,129	57,02
844,427	57,6
844,724	58,18
845,022	59,37
845,32	60,29
845,617	60,62
845,915	61,36
846,212	62,28
846,51	63,31
846,807	64,24
847,104	64,63
847,402	64,96
847,699	65,45
847,996	65,89
848,293	66,62
848,59	67,62
848,887	68,58
849,184	69,04
849,481	70,01
849,778	70,57
850,074	71,03
850,371	71,73
850,668	71,92
850,964	71,72
851,261	71,46
851,557	71,4
851,854	71,36
852,15	71,03
852,446	71,25
852,743	71,37
853,039	71,77
853,335	71,74
853,631	71,55
853,927	71,45
854,223	71,34
854,519	71,08
854,815	70,28
855,111	69,55
855,406	69,64
855,702	69,53
855,998	69,66
856,293	69,92
856,589	70,2
856,884	70,36
857,18	70,85
857,475	71,13
857,77	71,27
858,066	71,39
858,361	71,98
858,656	71,69
858,951	71,32
859,246	71,1
859,541	71,15
859,836	71,59
860,131	71,16
860,426	71,32
860,72	71,79
861,015	72,38
861,31	72,58
861,604	72,39
861,899	72,35
862,193	72,69
862,487	73,28
862,782	72,81
863,076	73,19
863,37	73,55
863,664	73,73
863,959	73,42
864,253	73
864,547	72,8
864,841	73,03
865,135	73,35
865,428	73,27
865,722	73,58
866,016	74,34
866,31	75,39
866,603	75,58
866,897	75,45
867,19	75,23
867,484	75,5
867,777	75,63
868,07	75,59
868,364	75,53
868,657	75
868,95	74,72
869,243	73,81
869,536	72,6
869,829	71,94
870,122	72,07
870,415	72,14
870,708	72,35
871	72,02
871,293	71,48
871,586	71,62
871,878	71,6
872,171	71,42
872,463	71,18
872,756	71,36
873,048	71,18
873,341	70,86
873,633	70,53
873,925	70,41
874,217	69,92
874,509	69,23
874,801	68,87
875,093	69,36
875,385	69,94
875,677	71,42
875,969	72,32
