Data from zc74051_4_Reflection_00004.txt Node
Date: Thu Mar 12 15:05:20 ART 2020
User: Ana
Spectrometer: USB2E3644
Trigger mode: 4
Integration Time (sec): 5,000000E-2
Scans to average: 10
Electric dark correction enabled: true
Nonlinearity correction enabled: false
Boxcar width: 10
XAxis mode: Wavelengths
Number of Pixels in Spectrum: 2048
>>>>>Begin Spectral Data<<<<<
178,315	81,14
178,696	83,78
179,076	98,37
179,457	103,6
179,838	101,92
180,218	142,42
180,599	-141,67
180,979	21,05
181,36	276,67
181,74	148,48
182,121	136,67
182,501	117,17
182,881	106,22
183,262	100,64
183,642	95,32
184,022	92,14
184,402	89,22
184,783	85,73
185,163	85,55
185,543	87
185,923	88,12
186,303	89,23
186,683	93,16
187,063	97,66
187,443	101,64
187,823	103,28
188,203	104,94
188,583	107,7
188,963	108,55
189,343	107,58
189,723	107,48
190,102	106,77
190,482	105,42
190,862	105,9
191,242	107,25
191,621	108,9
192,001	110,49
192,38	111,49
192,76	113,03
193,14	114,14
193,519	115,24
193,898	115,37
194,278	115,18
194,657	113,5
195,037	112,75
195,416	110,94
195,795	109,88
196,175	109,8
196,554	109,44
196,933	109,59
197,312	110,51
197,692	111,16
198,071	111,49
198,45	112,65
198,829	113,27
199,208	113,53
199,587	114,28
199,966	115,66
200,345	116,97
200,724	117,17
201,103	116,47
201,482	115,49
201,86	115,13
202,239	114,87
202,618	114,83
202,997	115,29
203,375	115,74
203,754	116,19
204,133	116,41
204,511	115,35
204,89	113,8
205,269	112,43
205,647	111,38
206,026	110,8
206,404	110,62
206,782	110,6
207,161	110,58
207,539	110,26
207,918	109,45
208,296	109,09
208,674	109,43
209,052	110,63
209,431	111,52
209,809	112,31
210,187	112,83
210,565	113,61
210,943	113,56
211,321	114,45
211,699	115,79
212,077	116,95
212,455	118,47
212,833	120,05
213,211	120,12
213,589	120,12
213,967	120,49
214,345	120,05
214,722	118,93
215,1	117,81
215,478	117,72
215,855	117,97
216,233	117,84
216,611	116,95
216,988	116,17
217,366	115,1
217,743	113,97
218,121	112,9
218,498	110,88
218,876	109,64
219,253	108,59
219,631	106,3
220,008	104,29
220,385	103,26
220,762	103,08
221,14	103,65
221,517	104,94
221,894	105,46
222,271	105,84
222,648	107,04
223,025	107,77
223,402	107,74
223,78	106,46
224,157	104,88
224,533	104,89
224,91	105,73
225,287	107,32
225,664	109,21
226,041	111,18
226,418	113,92
226,795	115,58
227,171	115,95
227,548	116,91
227,925	117,93
228,301	118,36
228,678	117,93
229,055	118,06
229,431	118,31
229,808	118,76
230,184	119,2
230,561	119,87
230,937	120,77
231,313	121,64
231,69	124,05
232,066	128,25
232,442	131,62
232,819	133,83
233,195	134,57
233,571	135,18
233,947	135,32
234,323	136,06
234,699	137,89
235,075	140,16
235,451	143,49
235,827	146,99
236,203	150,39
236,579	155,02
236,955	159,35
237,331	164,24
237,707	171,61
238,083	181,24
238,459	192,89
238,834	210,29
239,21	234,2
239,586	262,33
239,961	285,61
240,337	302,3
240,713	314,5
241,088	329,78
241,464	344,65
241,839	363,32
242,215	393,36
242,59	478,18
242,965	840,3
243,341	-4462,9
243,716	-550,8
244,091	-316,94
244,467	-238,26
244,842	-195,95
245,217	-166,85
245,592	-151,77
245,967	-148,35
246,343	-143,09
246,718	-139,83
247,093	-143,12
247,468	-147,55
247,843	-146,45
248,218	-140,07
248,593	-127,21
248,967	-115,24
249,342	-108,23
249,717	-104,37
250,092	-101,86
250,467	-103,35
250,841	-111,61
251,216	-131,37
251,591	-162,4
251,965	-197,6
252,34	-233,25
252,714	-279,07
253,089	-336,37
253,463	-381,05
253,838	-382,7
254,212	-372,3
254,587	-338,27
254,961	-272,83
255,335	-213,17
255,71	-163,88
256,084	-118,15
256,458	-90,38
256,832	-74,88
257,206	-66,44
257,581	-62,2
257,955	-60,27
258,329	-58,51
258,703	-56,14
259,077	-53,84
259,451	-51,45
259,825	-50,1
260,199	-49,65
260,572	-48,58
260,946	-48,13
261,32	-47,71
261,694	-46,86
262,068	-46,77
262,441	-46,46
262,815	-46,51
263,189	-46,14
263,562	-47
263,936	-50,63
264,309	-56,71
264,683	-63,5
265,056	-67,42
265,43	-68,73
265,803	-67,79
266,176	-65,85
266,55	-64,37
266,923	-63,11
267,296	-61,64
267,67	-59,08
268,043	-56,7
268,416	-53,66
268,789	-50,08
269,162	-46,52
269,535	-43,82
269,908	-41,28
270,281	-39,76
270,654	-39,65
271,027	-40,31
271,4	-40,51
271,773	-40,61
272,146	-40,3
272,519	-39,95
272,891	-40,11
273,264	-40,21
273,637	-40,13
274,01	-40,18
274,382	-41,17
274,755	-41,7
275,127	-42,06
275,5	-42,47
275,872	-42,18
276,245	-42,23
276,617	-43,06
276,99	-44,2
277,362	-45,2
277,734	-45,83
278,107	-46,06
278,479	-45,02
278,851	-43,53
279,223	-42,48
279,596	-41,36
279,968	-40,6
280,34	-39,71
280,712	-38,49
281,084	-36,82
281,456	-35,32
281,828	-33,68
282,2	-31,27
282,572	-29,27
282,944	-27,87
283,315	-27,04
283,687	-26,49
284,059	-26,26
284,431	-25,89
284,802	-25,22
285,174	-24,61
285,546	-23,98
285,917	-23,2
286,289	-22,6
286,66	-22,31
287,032	-21,9
287,403	-21,71
287,775	-21,72
288,146	-21,94
288,518	-22,21
288,889	-22,34
289,26	-22,44
289,632	-22,88
290,003	-23,62
290,374	-24,23
290,745	-24,57
291,116	-24,57
291,487	-24,72
291,858	-24,55
292,229	-24,35
292,6	-24,12
292,971	-23,6
293,342	-23,1
293,713	-22,39
294,084	-21,66
294,455	-20,78
294,826	-20,33
295,196	-20,19
295,567	-20,26
295,938	-20,12
296,308	-19,74
296,679	-19,32
297,05	-18,82
297,42	-18,2
297,791	-17,45
298,161	-17,04
298,532	-16,57
298,902	-16,19
299,272	-15,82
299,643	-15,54
300,013	-15,08
300,383	-14,74
300,754	-14,71
301,124	-14,85
301,494	-15,2
301,864	-15,63
302,234	-16,04
302,604	-16,09
302,974	-15,87
303,344	-15,45
303,714	-15,02
304,084	-14,53
304,454	-14,29
304,824	-14,15
305,194	-14,14
305,563	-14,23
305,933	-14,04
306,303	-13,76
306,673	-13,36
307,042	-12,76
307,412	-12,02
307,781	-11,39
308,151	-10,88
308,521	-10,49
308,89	-10,07
309,259	-9,85
309,629	-9,59
309,998	-9,33
310,368	-9,12
310,737	-8,93
311,106	-8,67
311,475	-8,41
311,845	-8,45
312,214	-8,32
312,583	-8,18
312,952	-8,06
313,321	-7,94
313,69	-7,68
314,059	-7,62
314,428	-7,66
314,797	-7,8
315,166	-8,13
315,535	-8,5
315,904	-8,89
316,272	-9,09
316,641	-9,27
317,01	-9,22
317,379	-9,15
317,747	-8,95
318,116	-8,49
318,484	-8,11
318,853	-7,89
319,221	-7,76
319,59	-7,56
319,958	-7,42
320,327	-7,34
320,695	-7,13
321,063	-6,8
321,432	-6,55
321,8	-6,06
322,168	-5,63
322,536	-5,34
322,905	-4,82
323,273	-4,29
323,641	-3,87
324,009	-3,55
324,377	-3,29
324,745	-3,03
325,113	-2,77
325,481	-2,55
325,849	-2,53
326,216	-2,45
326,584	-2,25
326,952	-2,1
327,32	-1,85
327,687	-1,61
328,055	-1,35
328,423	-1,19
328,79	-1,14
329,158	-1,2
329,525	-1,41
329,893	-1,5
330,26	-1,46
330,628	-1,55
330,995	-1,6
331,362	-1,65
331,73	-1,63
332,097	-1,47
332,464	-1,26
332,831	-1,07
333,199	-1
333,566	-0,86
333,933	-0,66
334,3	-0,45
334,667	-0,19
335,034	-0,02
335,401	0,02
335,768	0,11
336,135	0,27
336,502	0,48
336,868	0,78
337,235	1,06
337,602	1,27
337,969	1,49
338,335	1,75
338,702	2,04
339,069	2,34
339,435	2,53
339,802	2,69
340,168	2,84
340,535	3,04
340,901	3,11
341,267	3,11
341,634	3,15
342	3,16
342,366	3,15
342,733	3,14
343,099	3,31
343,465	3,42
343,831	3,47
344,197	3,55
344,563	3,55
344,929	3,55
345,295	3,66
345,661	3,78
346,027	3,81
346,393	3,77
346,759	3,8
347,125	3,86
347,491	3,93
347,856	3,92
348,222	3,9
348,588	4,09
348,953	4,33
349,319	4,42
349,684	4,52
350,05	4,62
350,415	4,77
350,781	4,82
351,146	4,94
351,512	5,09
351,877	5,2
352,242	5,29
352,608	5,44
352,973	5,58
353,338	5,72
353,703	5,88
354,068	5,97
354,433	6,01
354,798	6,15
355,164	6,27
355,528	6,35
355,893	6,39
356,258	6,41
356,623	6,44
356,988	6,57
357,353	6,66
357,718	6,77
358,082	6,88
358,447	6,99
358,812	7,1
359,176	7,21
359,541	7,34
359,905	7,49
360,27	7,63
360,634	7,7
360,999	7,78
361,363	7,88
361,728	7,99
362,092	8,14
362,456	8,23
362,821	8,33
363,185	8,49
363,549	8,66
363,913	8,79
364,277	8,93
364,641	9,03
365,005	9,2
365,369	9,33
365,733	9,43
366,097	9,5
366,461	9,59
366,825	9,64
367,189	9,68
367,553	9,76
367,916	9,91
368,28	10,05
368,644	10,11
369,007	10,17
369,371	10,31
369,734	10,44
370,098	10,52
370,461	10,62
370,825	10,7
371,188	10,77
371,552	10,83
371,915	10,86
372,278	11
372,642	11,1
373,005	11,19
373,368	11,31
373,731	11,41
374,094	11,5
374,457	11,66
374,82	11,86
375,183	11,97
375,546	12,03
375,909	12,1
376,272	12,24
376,635	12,36
376,998	12,41
377,361	12,48
377,723	12,56
378,086	12,62
378,449	12,69
378,811	12,74
379,174	12,84
379,537	12,93
379,899	12,97
380,262	13,01
380,624	13,07
380,987	13,14
381,349	13,25
381,711	13,35
382,074	13,43
382,436	13,51
382,798	13,65
383,16	13,72
383,522	13,76
383,884	13,79
384,247	13,83
384,609	13,88
384,971	13,95
385,333	14,02
385,695	14,08
386,056	14,14
386,418	14,2
386,78	14,26
387,142	14,32
387,504	14,38
387,865	14,42
388,227	14,43
388,589	14,45
388,95	14,49
389,312	14,51
389,673	14,54
390,035	14,55
390,396	14,54
390,758	14,56
391,119	14,58
391,48	14,62
391,842	14,65
392,203	14,71
392,564	14,74
392,925	14,8
393,286	14,82
393,648	14,85
394,009	14,93
394,37	14,96
394,731	15,01
395,092	15,05
395,452	15,09
395,813	15,15
396,174	15,21
396,535	15,22
396,896	15,28
397,257	15,31
397,617	15,34
397,978	15,39
398,338	15,45
398,699	15,51
399,06	15,61
399,42	15,63
399,781	15,65
400,141	15,68
400,501	15,67
400,862	15,7
401,222	15,71
401,582	15,69
401,943	15,72
402,303	15,71
402,663	15,72
403,023	15,71
403,383	15,71
403,743	15,71
404,103	15,74
404,463	15,76
404,823	15,81
405,183	15,85
405,543	15,87
405,903	15,88
406,262	15,89
406,622	15,86
406,982	15,89
407,342	15,94
407,701	15,98
408,061	16,02
408,42	16,09
408,78	16,11
409,139	16,14
409,499	16,13
409,858	16,17
410,217	16,2
410,577	16,25
410,936	16,28
411,295	16,28
411,655	16,25
412,014	16,23
412,373	16,2
412,732	16,13
413,091	16,08
413,45	16,06
413,809	16,03
414,168	16
414,527	15,98
414,886	15,93
415,245	15,91
415,603	15,9
415,962	15,85
416,321	15,84
416,679	15,82
417,038	15,79
417,397	15,77
417,755	15,72
418,114	15,67
418,472	15,65
418,831	15,63
419,189	15,63
419,547	15,62
419,906	15,61
420,264	15,61
420,622	15,59
420,981	15,58
421,339	15,57
421,697	15,56
422,055	15,56
422,413	15,58
422,771	15,59
423,129	15,6
423,487	15,61
423,845	15,61
424,203	15,63
424,56	15,67
424,918	15,69
425,276	15,74
425,634	15,79
425,991	15,84
426,349	15,89
426,707	15,94
427,064	15,99
427,422	16,02
427,779	16,08
428,137	16,14
428,494	16,22
428,851	16,29
429,209	16,35
429,566	16,36
429,923	16,35
430,28	16,32
430,637	16,29
430,995	16,29
431,352	16,32
431,709	16,32
432,066	16,31
432,423	16,33
432,78	16,34
433,137	16,35
433,493	16,35
433,85	16,38
434,207	16,35
434,564	16,34
434,92	16,36
435,277	16,34
435,634	16,37
435,99	16,36
436,347	16,33
436,703	16,34
437,06	16,34
437,416	16,34
437,773	16,35
438,129	16,34
438,485	16,36
438,841	16,34
439,198	16,35
439,554	16,34
439,91	16,33
440,266	16,33
440,622	16,34
440,978	16,33
441,334	16,31
441,69	16,3
442,046	16,27
442,402	16,26
442,758	16,26
443,113	16,23
443,469	16,2
443,825	16,2
444,181	16,19
444,536	16,2
444,892	16,2
445,247	16,23
445,603	16,25
445,958	16,24
446,314	16,26
446,669	16,25
447,025	16,28
447,38	16,3
447,735	16,29
448,09	16,31
448,446	16,3
448,801	16,31
449,156	16,34
449,511	16,37
449,866	16,4
450,221	16,43
450,576	16,49
450,931	16,55
451,286	16,6
451,641	16,64
451,995	16,68
452,35	16,73
452,705	16,74
453,06	16,78
453,414	16,82
453,769	16,82
454,123	16,85
454,478	16,86
454,832	16,86
455,187	16,84
455,541	16,8
455,896	16,8
456,25	16,79
456,604	16,77
456,958	16,76
457,313	16,74
457,667	16,72
458,021	16,7
458,375	16,69
458,729	16,7
459,083	16,72
459,437	16,73
459,791	16,72
460,145	16,74
460,499	16,72
460,852	16,71
461,206	16,73
461,56	16,73
461,914	16,74
462,267	16,73
462,621	16,75
462,974	16,75
463,328	16,79
463,681	16,81
464,035	16,84
464,388	16,87
464,742	16,89
465,095	16,93
465,448	16,96
465,801	16,96
466,155	16,94
466,508	16,92
466,861	16,9
467,214	16,92
467,567	16,9
467,92	16,93
468,273	16,93
468,626	16,91
468,979	16,93
469,332	16,92
469,684	16,94
470,037	16,97
470,39	17
470,743	17
471,095	17,01
471,448	17,02
471,8	17,02
472,153	17,04
472,505	17,04
472,858	17,06
473,21	17,08
473,562	17,11
473,915	17,12
474,267	17,13
474,619	17,1
474,971	17,12
475,324	17,11
475,676	17,13
476,028	17,16
476,38	17,17
476,732	17,17
477,084	17,16
477,436	17,15
477,787	17,14
478,139	17,12
478,491	17,1
478,843	17,06
479,195	17,05
479,546	17
479,898	17,01
480,249	16,99
480,601	16,99
480,952	16,96
481,304	16,94
481,655	16,9
482,007	16,88
482,358	16,85
482,709	16,84
483,061	16,81
483,412	16,79
483,763	16,79
484,114	16,79
484,465	16,78
484,816	16,76
485,167	16,75
485,518	16,74
485,869	16,74
486,22	16,74
486,571	16,75
486,922	16,75
487,272	16,73
487,623	16,71
487,974	16,7
488,324	16,71
488,675	16,74
489,025	16,74
489,376	16,76
489,726	16,78
490,077	16,79
490,427	16,8
490,778	16,82
491,128	16,83
491,478	16,82
491,828	16,85
492,179	16,88
492,529	16,9
492,879	16,93
493,229	16,97
493,579	16,98
493,929	16,98
494,279	17,01
494,629	17,03
494,979	17,05
495,328	17,05
495,678	17,06
496,028	17,07
496,378	17,12
496,727	17,15
497,077	17,18
497,426	17,18
497,776	17,18
498,125	17,19
498,475	17,2
498,824	17,23
499,174	17,22
499,523	17,23
499,872	17,24
500,221	17,25
500,571	17,23
500,92	17,26
501,269	17,28
501,618	17,28
501,967	17,29
502,316	17,29
502,665	17,32
503,014	17,3
503,363	17,29
503,711	17,29
504,06	17,3
504,409	17,31
504,758	17,3
505,106	17,34
505,455	17,33
505,803	17,29
506,152	17,26
506,5	17,27
506,849	17,27
507,197	17,25
507,546	17,23
507,894	17,26
508,242	17,26
508,59	17,27
508,939	17,27
509,287	17,26
509,635	17,26
509,983	17,26
510,331	17,26
510,679	17,28
511,027	17,27
511,375	17,26
511,723	17,27
512,07	17,29
512,418	17,27
512,766	17,3
513,114	17,33
513,461	17,37
513,809	17,37
514,156	17,35
514,504	17,35
514,851	17,36
515,199	17,34
515,546	17,31
515,893	17,31
516,241	17,32
516,588	17,32
516,935	17,33
517,282	17,33
517,63	17,37
517,977	17,36
518,324	17,37
518,671	17,37
519,018	17,38
519,365	17,38
519,711	17,37
520,058	17,39
520,405	17,4
520,752	17,39
521,099	17,42
521,445	17,46
521,792	17,47
522,138	17,49
522,485	17,5
522,832	17,52
523,178	17,5
523,524	17,51
523,871	17,52
524,217	17,52
524,563	17,51
524,91	17,49
525,256	17,49
525,602	17,48
525,948	17,46
526,294	17,43
526,64	17,41
526,986	17,39
527,332	17,36
527,678	17,35
528,024	17,35
528,37	17,35
528,716	17,34
529,061	17,35
529,407	17,35
529,753	17,36
530,098	17,36
530,444	17,37
530,789	17,36
531,135	17,36
531,48	17,36
531,826	17,33
532,171	17,32
532,516	17,3
532,862	17,3
533,207	17,33
533,552	17,35
533,897	17,38
534,242	17,4
534,587	17,41
534,932	17,42
535,277	17,41
535,622	17,41
535,967	17,42
536,312	17,41
536,657	17,41
537,001	17,42
537,346	17,42
537,691	17,41
538,035	17,43
538,38	17,42
538,724	17,42
539,069	17,47
539,413	17,47
539,758	17,47
540,102	17,48
540,446	17,46
540,791	17,46
541,135	17,46
541,479	17,47
541,823	17,47
542,167	17,47
542,512	17,49
542,856	17,49
543,2	17,49
543,543	17,49
543,887	17,49
544,231	17,49
544,575	17,48
544,919	17,49
545,262	17,5
545,606	17,51
545,95	17,52
546,293	17,51
546,637	17,53
546,98	17,54
547,324	17,53
547,667	17,57
548,011	17,58
548,354	17,59
548,697	17,59
549,04	17,6
549,384	17,63
549,727	17,62
550,07	17,6
550,413	17,59
550,756	17,58
551,099	17,59
551,442	17,57
551,785	17,6
552,128	17,61
552,47	17,6
552,813	17,6
553,156	17,61
553,499	17,61
553,841	17,59
554,184	17,57
554,526	17,57
554,869	17,53
555,211	17,52
555,554	17,49
555,896	17,48
556,238	17,43
556,581	17,38
556,923	17,35
557,265	17,35
557,607	17,35
557,949	17,34
558,291	17,32
558,633	17,29
558,975	17,27
559,317	17,24
559,659	17,19
560,001	17,18
560,343	17,15
560,685	17,13
561,026	17,11
561,368	17,11
561,71	17,08
562,051	17,07
562,393	17,06
562,734	17,05
563,076	17,04
563,417	17,05
563,759	17,04
564,1	17,03
564,441	17
564,782	16,95
565,124	16,93
565,465	16,92
565,806	16,92
566,147	16,9
566,488	16,9
566,829	16,9
567,17	16,9
567,511	16,89
567,851	16,89
568,192	16,88
568,533	16,87
568,874	16,86
569,214	16,86
569,555	16,83
569,895	16,8
570,236	16,78
570,576	16,75
570,917	16,74
571,257	16,73
571,598	16,76
571,938	16,78
572,278	16,76
572,618	16,75
572,959	16,76
573,299	16,75
573,639	16,71
573,979	16,68
574,319	16,67
574,659	16,64
574,999	16,6
575,339	16,58
575,678	16,57
576,018	16,56
576,358	16,5
576,698	16,49
577,037	16,46
577,377	16,44
577,716	16,43
578,056	16,42
578,395	16,42
578,735	16,34
579,074	16,33
579,413	16,28
579,753	16,24
580,092	16,21
580,431	16,18
580,77	16,17
581,109	16,15
581,448	16,11
581,787	16,08
582,126	16,08
582,465	16,05
582,804	16,06
583,143	16,07
583,482	16,07
583,82	16,05
584,159	16,07
584,498	16,06
584,836	16,07
585,175	16,04
585,514	15,99
585,852	15,98
586,19	15,96
586,529	15,98
586,867	15,99
587,205	16
587,544	15,99
587,882	15,96
588,22	15,97
588,558	15,98
588,896	16,02
589,234	16,01
589,572	16,02
589,91	15,99
590,248	15,95
590,586	15,97
590,924	16,01
591,262	16
591,599	15,97
591,937	15,95
592,275	15,97
592,612	15,99
592,95	16,01
593,287	16,04
593,625	16,06
593,962	16,05
594,299	16,06
594,637	16,08
594,974	16,12
595,311	16,13
595,648	16,15
595,985	16,12
596,322	16,11
596,659	16,12
596,996	16,14
597,333	16,11
597,67	16,09
598,007	16,08
598,344	16,06
598,681	16,11
599,017	16,1
599,354	16,08
599,691	16,1
600,027	16,12
600,364	16,11
600,7	16,15
601,037	16,21
601,373	16,22
601,71	16,22
602,046	16,22
602,382	16,23
602,718	16,22
603,054	16,21
603,391	16,22
603,727	16,21
604,063	16,2
604,399	16,24
604,735	16,23
605,071	16,24
605,406	16,26
605,742	16,24
606,078	16,26
606,414	16,29
606,749	16,3
607,085	16,3
607,421	16,29
607,756	16,24
608,092	16,19
608,427	16,14
608,762	16,11
609,098	16,08
609,433	16,04
609,768	16,04
610,104	16,03
610,439	16,01
610,774	16
611,109	15,97
611,444	15,96
611,779	15,95
612,114	15,95
612,449	15,94
612,784	15,92
613,118	15,9
613,453	15,86
613,788	15,82
614,123	15,72
614,457	15,7
614,792	15,67
615,126	15,66
615,461	15,65
615,795	15,66
616,13	15,66
616,464	15,65
616,798	15,64
617,132	15,63
617,467	15,63
617,801	15,64
618,135	15,66
618,469	15,7
618,803	15,71
619,137	15,68
619,471	15,68
619,805	15,65
620,139	15,64
620,472	15,65
620,806	15,67
621,14	15,69
621,473	15,67
621,807	15,66
622,141	15,65
622,474	15,62
622,808	15,63
623,141	15,62
623,474	15,66
623,808	15,67
624,141	15,72
624,474	15,74
624,807	15,75
625,141	15,72
625,474	15,69
625,807	15,7
626,14	15,72
626,473	15,71
626,806	15,73
627,138	15,73
627,471	15,69
627,804	15,68
628,137	15,69
628,469	15,7
628,802	15,7
629,135	15,69
629,467	15,71
629,8	15,7
630,132	15,69
630,465	15,69
630,797	15,66
631,129	15,63
631,461	15,64
631,794	15,64
632,126	15,66
632,458	15,66
632,79	15,65
633,122	15,65
633,454	15,65
633,786	15,63
634,118	15,64
634,45	15,68
634,781	15,68
635,113	15,68
635,445	15,69
635,777	15,71
636,108	15,72
636,44	15,72
636,771	15,74
637,103	15,73
637,434	15,68
637,765	15,67
638,097	15,65
638,428	15,63
638,759	15,62
639,09	15,64
639,422	15,64
639,753	15,63
640,084	15,59
640,415	15,56
640,746	15,51
641,077	15,47
641,407	15,44
641,738	15,41
642,069	15,4
642,4	15,39
642,73	15,35
643,061	15,35
643,392	15,34
643,722	15,33
644,053	15,36
644,383	15,38
644,713	15,41
645,044	15,4
645,374	15,43
645,704	15,43
646,034	15,42
646,365	15,42
646,695	15,4
647,025	15,46
647,355	15,46
647,685	15,5
648,015	15,54
648,344	15,53
648,674	15,55
649,004	15,54
649,334	15,56
649,663	15,57
649,993	15,59
650,323	15,62
650,652	15,63
650,982	15,63
651,311	15,64
651,64	15,62
651,97	15,62
652,299	15,59
652,628	15,6
652,958	15,59
653,287	15,62
653,616	15,62
653,945	15,57
654,274	15,59
654,603	15,62
654,932	15,61
655,261	15,61
655,589	15,59
655,918	15,65
656,247	15,66
656,576	15,69
656,904	15,75
657,233	15,81
657,561	15,84
657,89	15,87
658,218	15,89
658,547	15,96
658,875	15,97
659,203	15,96
659,532	15,95
659,86	15,95
660,188	15,91
660,516	15,95
660,844	15,95
661,172	15,96
661,5	15,96
661,828	15,98
662,156	15,98
662,484	15,99
662,811	15,94
663,139	15,92
663,467	15,91
663,794	15,85
664,122	15,79
664,45	15,75
664,777	15,65
665,104	15,62
665,432	15,57
665,759	15,52
666,086	15,52
666,414	15,5
666,741	15,51
667,068	15,54
667,395	15,55
667,722	15,55
668,049	15,55
668,376	15,54
668,703	15,54
669,03	15,58
669,357	15,6
669,683	15,62
670,01	15,59
670,337	15,53
670,663	15,52
670,99	15,51
671,317	15,55
671,643	15,6
671,969	15,55
672,296	15,53
672,622	15,55
672,948	15,54
673,275	15,56
673,601	15,54
673,927	15,49
674,253	15,46
674,579	15,47
674,905	15,46
675,231	15,41
675,557	15,38
675,883	15,35
676,209	15,32
676,534	15,32
676,86	15,37
677,186	15,45
677,511	15,5
677,837	15,52
678,162	15,49
678,488	15,51
678,813	15,55
679,139	15,58
679,464	15,62
679,789	15,64
680,114	15,67
680,44	15,7
680,765	15,71
681,09	15,73
681,415	15,75
681,74	15,74
682,065	15,79
682,39	15,82
682,714	15,8
683,039	15,81
683,364	15,81
683,689	15,78
684,013	15,74
684,338	15,7
684,662	15,68
684,987	15,69
685,311	15,7
685,636	15,68
685,96	15,61
686,284	15,59
686,608	15,56
686,933	15,52
687,257	15,49
687,581	15,53
687,905	15,54
688,229	15,5
688,553	15,52
688,877	15,51
689,201	15,48
689,524	15,51
689,848	15,56
690,172	15,6
690,496	15,63
690,819	15,65
691,143	15,63
691,466	15,62
691,79	15,58
692,113	15,58
692,436	15,59
692,76	15,63
693,083	15,62
693,406	15,58
693,729	15,55
694,053	15,54
694,376	15,45
694,699	15,37
695,022	15,44
695,344	15,49
695,667	15,54
695,99	15,65
696,313	15,7
696,636	15,74
696,958	15,76
697,281	15,83
697,604	15,89
697,926	15,93
698,249	15,97
698,571	15,98
698,893	15,94
699,216	15,95
699,538	15,96
699,86	15,98
700,182	16,07
700,504	16,13
700,827	16,1
701,149	16,12
701,471	16,17
701,793	16,09
702,114	16
702,436	15,88
702,758	15,73
703,08	15,59
703,401	15,47
703,723	15,38
704,045	15,31
704,366	15,26
704,688	15,25
705,009	15,15
705,331	15,15
705,652	15,18
705,973	15,2
706,294	15,21
706,616	15,2
706,937	15,14
707,258	15,05
707,579	15
707,9	15,02
708,221	15,04
708,542	15,09
708,863	15,2
709,183	15,28
709,504	15,35
709,825	15,39
710,145	15,35
710,466	15,31
710,787	15,3
711,107	15,27
711,427	15,23
711,748	15,27
712,068	15,31
712,388	15,33
712,709	15,36
713,029	15,38
713,349	15,39
713,669	15,42
713,989	15,5
714,309	15,6
714,629	15,64
714,949	15,65
715,269	15,64
715,589	15,59
715,908	15,56
716,228	15,56
716,548	15,59
716,867	15,65
717,187	15,69
717,506	15,72
717,826	15,71
718,145	15,77
718,465	15,84
718,784	15,86
719,103	15,9
719,422	15,88
719,741	15,92
720,061	15,93
720,38	15,99
720,699	16,08
721,018	16,18
721,336	16,26
721,655	16,36
721,974	16,52
722,293	16,62
722,612	16,82
722,93	16,94
723,249	17,02
723,567	17,19
723,886	17,35
724,204	17,43
724,523	17,65
724,841	17,72
725,159	17,75
725,477	17,86
725,796	17,94
726,114	18,11
726,432	18,27
726,75	18,42
727,068	18,55
727,386	18,65
727,704	18,73
728,022	18,91
728,339	19,05
728,657	19,16
728,975	19,26
729,292	19,35
729,61	19,46
729,928	19,58
730,245	19,65
730,562	19,8
730,88	19,96
731,197	20,08
731,514	20,19
731,832	20,32
732,149	20,38
732,466	20,46
732,783	20,54
733,1	20,59
733,417	20,71
733,734	20,73
734,051	20,71
734,368	20,68
734,684	20,63
735,001	20,57
735,318	20,57
735,634	20,6
735,951	20,61
736,268	20,69
736,584	20,77
736,9	20,85
737,217	20,87
737,533	20,92
737,849	21
738,166	21,12
738,482	21,35
738,798	21,55
739,114	21,84
739,43	22
739,746	22,09
740,062	22,11
740,378	22,23
740,693	22,48
741,009	22,85
741,325	23,05
741,641	23,25
741,956	23,5
742,272	23,75
742,587	23,87
742,903	24,04
743,218	24,15
743,533	24,2
743,849	24,33
744,164	24,41
744,479	24,44
744,794	24,52
745,109	24,47
745,424	24,42
745,739	24,31
746,054	24,24
746,369	24,24
746,684	24,33
746,999	24,37
747,313	24,3
747,628	24,18
747,943	24,19
748,257	24,34
748,572	24,39
748,886	24,4
749,201	24,59
749,515	24,57
749,829	24,68
750,144	24,9
750,458	24,99
750,772	25,08
751,086	25,11
751,4	25,16
751,714	25,21
752,028	25,25
752,342	25,31
752,656	25,43
752,97	25,66
753,284	25,84
753,597	26,02
753,911	26,16
754,225	26,27
754,538	26,43
754,852	26,51
755,165	26,51
755,478	26,58
755,792	26,57
756,105	26,64
756,418	26,74
756,731	26,73
757,045	26,78
757,358	26,87
757,671	26,94
757,984	27,06
758,297	27,15
758,609	27,23
758,922	27,25
759,235	27,22
759,548	27,1
759,86	26,85
760,173	26,59
760,486	26,54
760,798	26,4
761,111	26,2
761,423	25,92
761,735	25,81
762,048	25,72
762,36	25,68
762,672	25,71
762,984	25,65
763,296	25,67
763,608	25,73
763,92	25,75
764,232	25,83
764,544	25,85
764,856	26
765,168	26,08
765,48	26,18
765,791	26,28
766,103	26,38
766,414	26,63
766,726	26,97
767,037	27,24
767,349	27,54
767,66	27,83
767,972	28,28
768,283	28,71
768,594	29,06
768,905	29,32
769,216	29,46
769,527	29,71
769,838	29,88
770,149	30,1
770,46	30,32
770,771	30,55
771,082	30,71
771,393	30,8
771,703	30,97
772,014	31,17
772,324	31,36
772,635	31,62
772,945	31,85
773,256	31,93
773,566	31,94
773,877	32,01
774,187	32,21
774,497	32,33
774,807	32,48
775,117	32,55
775,427	32,67
775,737	32,96
776,047	33,16
776,357	33,35
776,667	33,34
776,977	33,4
777,287	33,52
777,596	33,71
777,906	33,82
778,216	34,09
778,525	34,49
778,835	34,83
779,144	35,16
779,453	35,32
779,763	35,55
780,072	35,69
780,381	36,04
780,69	36,08
781	36,23
781,309	36,21
781,618	36,34
781,927	36,45
782,235	36,48
782,544	36,61
782,853	36,85
783,162	37,19
783,471	37,3
783,779	37,26
784,088	37,23
784,396	37,33
784,705	37,21
785,013	36,85
785,322	36,37
785,63	35,85
785,938	35,49
786,246	35,3
786,554	35,38
786,863	35,42
787,171	35,54
787,479	35,64
787,787	35,92
788,094	36,09
788,402	36,14
788,71	36,29
789,018	36,35
789,326	36,25
789,633	36,14
789,941	36,21
790,248	36,29
790,556	36,5
790,863	36,4
791,171	36,43
791,478	36,49
791,785	36,84
792,092	37,22
792,399	37,59
792,707	37,68
793,014	37,52
793,321	37,43
793,628	37,64
793,934	37,7
794,241	37,48
794,548	37,24
794,855	37,04
795,161	37,04
795,468	36,93
795,775	36,96
796,081	37,16
796,388	37,33
796,694	37,46
797	37,24
797,307	37,15
797,613	37
797,919	37,07
798,225	36,99
798,531	36,78
798,837	36,54
799,143	36,45
799,449	36,7
799,755	36,94
800,061	36,8
800,367	36,93
800,672	37,23
800,978	37,78
801,284	38,45
801,589	38,58
801,895	38,74
802,2	38,89
802,506	38,85
802,811	38,53
803,116	38,38
803,421	38,53
803,727	38,68
804,032	38,77
804,337	38,78
804,642	38,95
804,947	39,16
805,252	39,39
805,556	39,78
805,861	39,96
806,166	39,72
806,471	39,74
806,775	39,71
807,08	39,68
807,384	39,56
807,689	39,36
807,993	39,53
808,298	39,83
808,602	39,92
808,906	40,04
809,211	40,25
809,515	40,54
809,819	40,81
810,123	41,08
810,427	41,49
810,731	41,76
811,035	41,78
811,338	41,86
811,642	41,94
811,946	41,74
812,25	41,58
812,553	41,82
812,857	42
813,16	41,99
813,464	41,85
813,767	41,77
814,07	41,65
814,374	41,4
814,677	41,22
814,98	41,17
815,283	41,06
815,586	41,06
815,889	40,9
816,192	40,67
816,495	40,5
816,798	40,19
817,101	39,86
817,404	39,65
817,706	39,4
818,009	38,95
818,312	38,23
818,614	37,21
818,917	35,46
819,219	33,19
819,521	31,35
819,824	29,75
820,126	28,57
820,428	27,75
820,73	27,23
821,032	26,83
821,334	26,52
821,636	26,25
821,938	26,1
822,24	26,03
822,542	25,96
822,844	25,95
823,145	25,9
823,447	25,83
823,749	25,71
824,05	25,58
824,352	25,51
824,653	25,5
824,955	25,46
825,256	25,54
825,557	25,77
825,858	26,02
826,16	26,4
826,461	26,84
826,762	27,3
827,063	27,73
827,364	28,11
827,665	28,54
827,965	28,94
828,266	29,27
828,567	29,49
828,868	29,68
829,168	29,73
829,469	29,78
829,769	29,93
830,07	30,24
830,37	30,64
830,67	31
830,971	31,29
831,271	31,7
831,571	32,02
831,871	32,29
832,171	32,43
832,471	32,59
832,771	32,63
833,071	32,64
833,371	32,66
833,671	32,84
833,971	32,79
834,27	32,84
834,57	33,21
834,869	33,62
835,169	34,01
835,468	34,26
835,768	34,69
836,067	34,97
836,367	35,34
836,666	35,7
836,965	36,21
837,264	36,9
837,563	37,55
837,862	38,39
838,161	39,2
838,46	40,14
838,759	41,05
839,058	41,96
839,356	42,89
839,655	43,48
839,954	44,03
840,252	44,92
840,551	45,9
840,849	46,28
841,148	46,57
841,446	46,58
841,744	46,68
842,043	46,74
842,341	46,87
842,639	47,12
842,937	47,29
843,235	47,75
843,533	48,14
843,831	48,95
844,129	49,82
844,427	51,02
844,724	52,17
845,022	52,98
845,32	53,79
845,617	54,56
845,915	55,92
846,212	56,78
846,51	57,47
846,807	58,16
847,104	58,99
847,402	59,86
847,699	61,02
847,996	62,16
848,293	63,03
848,59	63,83
848,887	64,02
849,184	64,46
849,481	64,58
849,778	64,82
850,074	65,04
850,371	65,41
850,668	65,61
850,964	65,77
851,261	65,99
851,557	66
851,854	66,37
852,15	66,71
852,446	66,79
852,743	66,51
853,039	66,33
853,335	65,65
853,631	65,05
853,927	64,7
854,223	64,35
854,519	64,66
854,815	65,4
855,111	65,82
855,406	66,37
855,702	66,96
855,998	67,63
856,293	67,84
856,589	68,05
856,884	68,09
857,18	68,13
857,475	68,36
857,77	68,83
858,066	68,73
858,361	68,36
858,656	68
858,951	67,7
859,246	67,57
859,541	67,83
859,836	68,14
860,131	68,08
860,426	68,09
860,72	67,79
861,015	67,17
861,31	66,41
861,604	65,71
861,899	65,29
862,193	64,83
862,487	64,54
862,782	63,59
863,076	63,8
863,37	64,06
863,664	64,56
863,959	64,89
864,253	65,49
864,547	66,09
864,841	66,38
865,135	67,03
865,428	67,61
865,722	68,19
866,016	68,17
866,31	68,01
866,603	67,71
866,897	67,41
867,19	66,72
867,484	66,74
867,777	67,2
868,07	67,54
868,364	67,38
868,657	66,64
868,95	66,66
869,243	66,33
869,536	66,35
869,829	65,91
870,122	65,63
870,415	65,43
870,708	65,13
871	64,69
871,293	64,33
871,586	63,61
871,878	63,3
872,171	63,23
872,463	63,5
872,756	64,02
873,048	63,83
873,341	64,41
873,633	64,92
873,925	64,53
874,217	63,77
874,509	63,57
874,801	64,77
875,093	65,53
875,385	65,36
875,677	64,94
875,969	64,81
