Data from zc74010_2_Reflection_00003.txt Node
Date: Thu Mar 12 14:59:51 ART 2020
User: Ana
Spectrometer: USB2E3644
Trigger mode: 4
Integration Time (sec): 5,000000E-2
Scans to average: 10
Electric dark correction enabled: true
Nonlinearity correction enabled: false
Boxcar width: 10
XAxis mode: Wavelengths
Number of Pixels in Spectrum: 2048
>>>>>Begin Spectral Data<<<<<
178,315	83,87
178,696	89,92
179,076	94,27
179,457	94,86
179,838	120,48
180,218	174,07
180,599	705,56
180,979	12,9
181,36	201,39
181,74	78,4
182,121	65,42
182,501	88,27
182,881	85,12
183,262	81,49
183,642	79,76
184,022	78,77
184,402	76,56
184,783	75,5
185,163	74,1
185,543	75,36
185,923	77,17
186,303	80,41
186,683	82,84
187,063	86,01
187,443	90,54
187,823	95,47
188,203	97,57
188,583	98,5
188,963	98,17
189,343	97,49
189,723	100,03
190,102	104,4
190,482	108,65
190,862	109,92
191,242	111,43
191,621	111,9
192,001	112,55
192,38	113,99
192,76	114,84
193,14	116,48
193,519	117,38
193,898	118,77
194,278	120,61
194,657	123,47
195,037	123,74
195,416	119,91
195,795	116,45
196,175	115,24
196,554	113,74
196,933	112,52
197,312	112,08
197,692	111,39
198,071	110,52
198,45	110,55
198,829	110,81
199,208	110,9
199,587	110,89
199,966	111,62
200,345	111,36
200,724	111,68
201,103	112,9
201,482	114,11
201,86	114,35
202,239	112,52
202,618	110,54
202,997	109,86
203,375	110,41
203,754	111,97
204,133	113,03
204,511	113,77
204,89	114,68
205,269	115,21
205,647	115,45
206,026	114,95
206,404	114,54
206,782	114,41
207,161	115,12
207,539	115,5
207,918	115,63
208,296	116,53
208,674	117,08
209,052	117,18
209,431	117,62
209,809	118,08
210,187	118,86
210,565	118,86
210,943	118,59
211,321	119,44
211,699	120,35
212,077	121,55
212,455	122,59
212,833	123,79
213,211	124,64
213,589	125,32
213,967	125,87
214,345	126,31
214,722	127,25
215,1	126,79
215,478	126,29
215,855	126
216,233	125,84
216,611	126,47
216,988	125,4
217,366	123,76
217,743	123,39
218,121	124,07
218,498	125,37
218,876	125,52
219,253	123,34
219,631	120,75
220,008	117,88
220,385	116,33
220,762	114,85
221,14	114,06
221,517	113,56
221,894	113,15
222,271	112,09
222,648	111,26
223,025	110,6
223,402	110,23
223,78	109,83
224,157	109,28
224,533	108,21
224,91	108,94
225,287	110,49
225,664	111,81
226,041	112,23
226,418	112,06
226,795	112,79
227,171	114,95
227,548	117,7
227,925	120,43
228,301	122,09
228,678	124,04
229,055	125,63
229,431	127,09
229,808	128,95
230,184	130,81
230,561	133,15
230,937	136,42
231,313	139,19
231,69	140,97
232,066	142,91
232,442	144,56
232,819	145,6
233,195	145,39
233,571	144,89
233,947	146,82
234,323	149,35
234,699	150,89
235,075	151,84
235,451	153,25
235,827	155,39
236,203	157,96
236,579	160,41
236,955	164,81
237,331	173,48
237,707	184,72
238,083	198,27
238,459	214,29
238,834	240,69
239,21	284,06
239,586	343,26
239,961	408,28
240,337	480,83
240,713	546,8
241,088	621,48
241,464	713,24
241,839	834,78
242,215	1108,04
242,59	2596,26
242,965	-1590,21
243,341	-451,65
243,716	-243,99
244,091	-174,2
244,467	-143,73
244,842	-126,56
245,217	-115,24
245,592	-109,63
245,967	-108,48
246,343	-105,66
246,718	-103,57
247,093	-105,57
247,468	-107,89
247,843	-107,79
248,218	-103,4
248,593	-95,6
248,967	-87,66
249,342	-83,53
249,717	-81,18
250,092	-80,26
250,467	-81,61
250,841	-87,18
251,216	-100,17
251,591	-120,92
251,965	-144,63
252,34	-163,16
252,714	-181,9
253,089	-194,51
253,463	-203,99
253,838	-202,34
254,212	-196,65
254,587	-186,67
254,961	-165,19
255,335	-140,98
255,71	-116,76
256,084	-91,15
256,458	-73,18
256,832	-62,46
257,206	-56,57
257,581	-53,58
257,955	-51,44
258,329	-49,38
258,703	-47,11
259,077	-44,99
259,451	-42,94
259,825	-41,91
260,199	-41,77
260,572	-41,26
260,946	-41,4
261,32	-40,96
261,694	-40,2
262,068	-39,97
262,441	-39,56
262,815	-39,38
263,189	-39,03
263,562	-39,6
263,936	-42,43
264,309	-46,76
264,683	-51,7
265,056	-54,47
265,43	-55,72
265,803	-56,02
266,176	-55,7
266,55	-55,73
266,923	-55,25
267,296	-54,43
267,67	-52,49
268,043	-50,37
268,416	-47,45
268,789	-44,18
269,162	-41,32
269,535	-39,21
269,908	-37,62
270,281	-36,88
270,654	-37,05
271,027	-37,53
271,4	-37,68
271,773	-37,27
272,146	-36,9
272,519	-36,53
272,891	-36,56
273,264	-36,68
273,637	-36,41
274,01	-36,04
274,382	-36,33
274,755	-36,45
275,127	-36,6
275,5	-36,82
275,872	-36,9
276,245	-37,44
276,617	-38,57
276,99	-39,36
277,362	-40,24
277,734	-40,65
278,107	-40,28
278,479	-39,6
278,851	-38,77
279,223	-38,07
279,596	-37,25
279,968	-36,52
280,34	-35,59
280,712	-34,51
281,084	-32,92
281,456	-31,32
281,828	-29,84
282,2	-27,63
282,572	-25,93
282,944	-24,67
283,315	-23,87
283,687	-23,24
284,059	-22,89
284,431	-22,41
284,802	-21,8
285,174	-21,31
285,546	-20,85
285,917	-20,31
286,289	-19,81
286,66	-19,68
287,032	-19,39
287,403	-19,28
287,775	-19,35
288,146	-19,59
288,518	-19,75
288,889	-19,77
289,26	-19,85
289,632	-20,25
290,003	-20,87
290,374	-21,33
290,745	-21,65
291,116	-21,69
291,487	-21,65
291,858	-21,59
292,229	-21,65
292,6	-21,63
292,971	-20,97
293,342	-20,1
293,713	-19,14
294,084	-18,34
294,455	-17,45
294,826	-17,07
295,196	-17,05
295,567	-17,2
295,938	-16,95
296,308	-16,76
296,679	-16,52
297,05	-16,22
297,42	-15,66
297,791	-15,08
298,161	-14,68
298,532	-14,29
298,902	-13,94
299,272	-13,68
299,643	-13,35
300,013	-12,75
300,383	-12,34
300,754	-12,35
301,124	-12,63
301,494	-13,17
301,864	-13,72
302,234	-14,24
302,604	-14,36
302,974	-14,2
303,344	-13,74
303,714	-13,38
304,084	-12,93
304,454	-12,73
304,824	-12,69
305,194	-12,8
305,563	-12,95
305,933	-12,86
306,303	-12,61
306,673	-12,21
307,042	-11,76
307,412	-11,28
307,781	-10,86
308,151	-10,57
308,521	-10,25
308,89	-9,91
309,259	-9,84
309,629	-9,75
309,998	-9,66
310,368	-9,7
310,737	-9,66
311,106	-9,69
311,475	-9,73
311,845	-9,83
312,214	-9,81
312,583	-9,75
312,952	-9,76
313,321	-9,68
313,69	-9,54
314,059	-9,58
314,428	-9,82
314,797	-10,1
315,166	-10,48
315,535	-11,03
315,904	-11,54
316,272	-12,02
316,641	-12,43
317,01	-12,31
317,379	-12
317,747	-11,53
318,116	-11
318,484	-10,65
318,853	-10,37
319,221	-10,24
319,59	-10,17
319,958	-10,01
320,327	-9,89
320,695	-9,8
321,063	-9,63
321,432	-9,43
321,8	-9,14
322,168	-8,96
322,536	-8,83
322,905	-8,48
323,273	-8,1
323,641	-7,79
324,009	-7,47
324,377	-7,25
324,745	-7,14
325,113	-7,04
325,481	-7
325,849	-7,04
326,216	-7,02
326,584	-6,85
326,952	-6,63
327,32	-6,36
327,687	-6,21
328,055	-5,95
328,423	-5,71
328,79	-5,76
329,158	-5,86
329,525	-5,88
329,893	-5,74
330,26	-5,49
330,628	-5,41
330,995	-5,33
331,362	-5,32
331,73	-5,33
332,097	-5,16
332,464	-5
332,831	-4,81
333,199	-4,69
333,566	-4,54
333,933	-4,37
334,3	-4,24
334,667	-4,16
335,034	-4,11
335,401	-4,08
335,768	-4,11
336,135	-4,12
336,502	-3,95
336,868	-3,79
337,235	-3,7
337,602	-3,65
337,969	-3,57
338,335	-3,4
338,702	-3,21
339,069	-3,04
339,435	-2,98
339,802	-2,94
340,168	-2,9
340,535	-2,83
340,901	-2,86
341,267	-2,86
341,634	-2,77
342	-2,73
342,366	-2,65
342,733	-2,62
343,099	-2,49
343,465	-2,4
343,831	-2,32
344,197	-2,3
344,563	-2,31
344,929	-2,29
345,295	-2,16
345,661	-2,03
346,027	-2,01
346,393	-2,05
346,759	-2
347,125	-1,9
347,491	-1,85
347,856	-1,82
348,222	-1,85
348,588	-1,73
348,953	-1,62
349,319	-1,7
349,684	-1,7
350,05	-1,7
350,415	-1,66
350,781	-1,62
351,146	-1,53
351,512	-1,41
351,877	-1,31
352,242	-1,22
352,608	-1,11
352,973	-1,08
353,338	-1,03
353,703	-0,91
354,068	-0,82
354,433	-0,72
354,798	-0,65
355,164	-0,56
355,528	-0,44
355,893	-0,34
356,258	-0,27
356,623	-0,13
356,988	0,07
357,353	0,2
357,718	0,28
358,082	0,36
358,447	0,43
358,812	0,54
359,176	0,6
359,541	0,67
359,905	0,78
360,27	0,87
360,634	0,93
360,999	0,95
361,363	0,95
361,728	1
362,092	1,05
362,456	1,12
362,821	1,19
363,185	1,25
363,549	1,35
363,913	1,39
364,277	1,38
364,641	1,37
365,005	1,41
365,369	1,47
365,733	1,56
366,097	1,62
366,461	1,63
366,825	1,69
367,189	1,75
367,553	1,84
367,916	1,99
368,28	2,15
368,644	2,25
369,007	2,37
369,371	2,51
369,734	2,64
370,098	2,74
370,461	2,85
370,825	2,91
371,188	2,9
371,552	2,93
371,915	2,98
372,278	3,1
372,642	3,15
373,005	3,22
373,368	3,33
373,731	3,44
374,094	3,55
374,457	3,65
374,82	3,78
375,183	3,83
375,546	3,87
375,909	3,88
376,272	3,98
376,635	4,07
376,998	4,11
377,361	4,13
377,723	4,2
378,086	4,25
378,449	4,28
378,811	4,39
379,174	4,5
379,537	4,57
379,899	4,59
380,262	4,64
380,624	4,69
380,987	4,73
381,349	4,79
381,711	4,81
382,074	4,87
382,436	4,91
382,798	5,02
383,16	5,05
383,522	5,1
383,884	5,1
384,247	5,11
384,609	5,14
384,971	5,2
385,333	5,22
385,695	5,26
386,056	5,31
386,418	5,31
386,78	5,3
387,142	5,31
387,504	5,34
387,865	5,37
388,227	5,39
388,589	5,4
388,95	5,42
389,312	5,45
389,673	5,48
390,035	5,48
390,396	5,46
390,758	5,47
391,119	5,47
391,48	5,49
391,842	5,51
392,203	5,55
392,564	5,55
392,925	5,58
393,286	5,59
393,648	5,61
394,009	5,67
394,37	5,72
394,731	5,77
395,092	5,79
395,452	5,82
395,813	5,87
396,174	5,9
396,535	5,9
396,896	5,89
397,257	5,88
397,617	5,91
397,978	5,92
398,338	5,94
398,699	5,97
399,06	6,01
399,42	6,02
399,781	6,03
400,141	6,06
400,501	6,07
400,862	6,08
401,222	6,09
401,582	6,08
401,943	6,12
402,303	6,13
402,663	6,15
403,023	6,15
403,383	6,16
403,743	6,15
404,103	6,17
404,463	6,21
404,823	6,26
405,183	6,28
405,543	6,32
405,903	6,33
406,262	6,32
406,622	6,28
406,982	6,28
407,342	6,29
407,701	6,31
408,061	6,33
408,42	6,34
408,78	6,34
409,139	6,33
409,499	6,31
409,858	6,31
410,217	6,33
410,577	6,33
410,936	6,33
411,295	6,35
411,655	6,33
412,014	6,3
412,373	6,26
412,732	6,21
413,091	6,19
413,45	6,15
413,809	6,11
414,168	6,07
414,527	6,02
414,886	5,95
415,245	5,88
415,603	5,83
415,962	5,77
416,321	5,75
416,679	5,72
417,038	5,65
417,397	5,6
417,755	5,55
418,114	5,52
418,472	5,49
418,831	5,47
419,189	5,46
419,547	5,44
419,906	5,4
420,264	5,38
420,622	5,33
420,981	5,32
421,339	5,32
421,697	5,33
422,055	5,35
422,413	5,36
422,771	5,38
423,129	5,41
423,487	5,45
423,845	5,47
424,203	5,5
424,56	5,55
424,918	5,59
425,276	5,63
425,634	5,66
425,991	5,7
426,349	5,73
426,707	5,77
427,064	5,8
427,422	5,86
427,779	5,92
428,137	6
428,494	6,05
428,851	6,06
429,209	6,07
429,566	6,06
429,923	6,06
430,28	6,05
430,637	6,04
430,995	6,01
431,352	5,99
431,709	5,99
432,066	6
432,423	6
432,78	6
433,137	6,01
433,493	6,01
433,85	6,01
434,207	5,98
434,564	5,95
434,92	5,94
435,277	5,91
435,634	5,89
435,99	5,87
436,347	5,87
436,703	5,88
437,06	5,87
437,416	5,87
437,773	5,85
438,129	5,83
438,485	5,84
438,841	5,83
439,198	5,81
439,554	5,78
439,91	5,78
440,266	5,78
440,622	5,77
440,978	5,77
441,334	5,72
441,69	5,7
442,046	5,7
442,402	5,67
442,758	5,66
443,113	5,66
443,469	5,66
443,825	5,66
444,181	5,66
444,536	5,67
444,892	5,68
445,247	5,7
445,603	5,71
445,958	5,72
446,314	5,73
446,669	5,74
447,025	5,77
447,38	5,76
447,735	5,77
448,09	5,77
448,446	5,77
448,801	5,78
449,156	5,82
449,511	5,83
449,866	5,88
450,221	5,92
450,576	5,96
450,931	6,01
451,286	6,03
451,641	6,07
451,995	6,08
452,35	6,1
452,705	6,1
453,06	6,09
453,414	6,09
453,769	6,1
454,123	6,11
454,478	6,09
454,832	6,1
455,187	6,07
455,541	6,03
455,896	6
456,25	5,98
456,604	5,96
456,958	5,94
457,313	5,92
457,667	5,91
458,021	5,9
458,375	5,9
458,729	5,91
459,083	5,92
459,437	5,94
459,791	5,93
460,145	5,94
460,499	5,95
460,852	5,95
461,206	5,93
461,56	5,93
461,914	5,93
462,267	5,93
462,621	5,95
462,974	5,98
463,328	5,99
463,681	6,02
464,035	6,05
464,388	6,07
464,742	6,07
465,095	6,07
465,448	6,08
465,801	6,08
466,155	6,06
466,508	6,03
466,861	6
467,214	5,99
467,567	5,98
467,92	5,96
468,273	5,98
468,626	5,98
468,979	5,98
469,332	5,96
469,684	5,97
470,037	5,97
470,39	5,99
470,743	6,01
471,095	6,03
471,448	6,04
471,8	6,05
472,153	6,06
472,505	6,06
472,858	6,06
473,21	6,06
473,562	6,08
473,915	6,08
474,267	6,1
474,619	6,1
474,971	6,09
475,324	6,08
475,676	6,08
476,028	6,08
476,38	6,08
476,732	6,09
477,084	6,07
477,436	6,05
477,787	6,02
478,139	6,01
478,491	5,99
478,843	5,95
479,195	5,92
479,546	5,87
479,898	5,79
480,249	5,71
480,601	5,65
480,952	5,61
481,304	5,6
481,655	5,6
482,007	5,61
482,358	5,63
482,709	5,63
483,061	5,62
483,412	5,6
483,763	5,59
484,114	5,57
484,465	5,57
484,816	5,56
485,167	5,56
485,518	5,56
485,869	5,56
486,22	5,57
486,571	5,59
486,922	5,6
487,272	5,62
487,623	5,65
487,974	5,67
488,324	5,68
488,675	5,68
489,025	5,67
489,376	5,66
489,726	5,66
490,077	5,68
490,427	5,7
490,778	5,73
491,128	5,75
491,478	5,79
491,828	5,82
492,179	5,85
492,529	5,88
492,879	5,9
493,229	5,9
493,579	5,89
493,929	5,89
494,279	5,91
494,629	5,94
494,979	5,98
495,328	6,01
495,678	6,06
496,028	6,1
496,378	6,15
496,727	6,15
497,077	6,16
497,426	6,15
497,776	6,14
498,125	6,14
498,475	6,14
498,824	6,16
499,174	6,15
499,523	6,17
499,872	6,17
500,221	6,17
500,571	6,17
500,92	6,18
501,269	6,2
501,618	6,2
501,967	6,2
502,316	6,2
502,665	6,22
503,014	6,23
503,363	6,23
503,711	6,22
504,06	6,22
504,409	6,19
504,758	6,17
505,106	6,16
505,455	6,15
505,803	6,13
506,152	6,1
506,5	6,09
506,849	6,07
507,197	6,07
507,546	6,07
507,894	6,09
508,242	6,09
508,59	6,07
508,939	6,05
509,287	6,06
509,635	6,06
509,983	6,07
510,331	6,07
510,679	6,08
511,027	6,08
511,375	6,09
511,723	6,11
512,07	6,13
512,418	6,16
512,766	6,17
513,114	6,19
513,461	6,21
513,809	6,23
514,156	6,22
514,504	6,22
514,851	6,2
515,199	6,18
515,546	6,16
515,893	6,17
516,241	6,18
516,588	6,19
516,935	6,2
517,282	6,18
517,63	6,18
517,977	6,18
518,324	6,19
518,671	6,21
519,018	6,22
519,365	6,21
519,711	6,21
520,058	6,22
520,405	6,22
520,752	6,21
521,099	6,2
521,445	6,2
521,792	6,19
522,138	6,18
522,485	6,18
522,832	6,19
523,178	6,19
523,524	6,19
523,871	6,18
524,217	6,16
524,563	6,11
524,91	6,05
525,256	5,99
525,602	5,95
525,948	5,94
526,294	5,94
526,64	5,94
526,986	5,95
527,332	5,94
527,678	5,94
528,024	5,97
528,37	5,98
528,716	5,98
529,061	5,98
529,407	5,97
529,753	5,97
530,098	5,95
530,444	5,95
530,789	5,95
531,135	5,96
531,48	5,97
531,826	6
532,171	6,03
532,516	6,08
532,862	6,1
533,207	6,1
533,552	6,11
533,897	6,12
534,242	6,11
534,587	6,11
534,932	6,12
535,277	6,12
535,622	6,12
535,967	6,13
536,312	6,16
536,657	6,18
537,001	6,2
537,346	6,21
537,691	6,19
538,035	6,15
538,38	6,13
538,724	6,11
539,069	6,11
539,413	6,12
539,758	6,12
540,102	6,14
540,446	6,15
540,791	6,16
541,135	6,15
541,479	6,16
541,823	6,16
542,167	6,15
542,512	6,15
542,856	6,14
543,2	6,13
543,543	6,11
543,887	6,11
544,231	6,13
544,575	6,16
544,919	6,21
545,262	6,26
545,606	6,3
545,95	6,31
546,293	6,32
546,637	6,32
546,98	6,32
547,324	6,31
547,667	6,33
548,011	6,31
548,354	6,33
548,697	6,31
549,04	6,29
549,384	6,29
549,727	6,26
550,07	6,27
550,413	6,26
550,756	6,28
551,099	6,3
551,442	6,29
551,785	6,27
552,128	6,25
552,47	6,23
552,813	6,2
553,156	6,2
553,499	6,19
553,841	6,19
554,184	6,18
554,526	6,15
554,869	6,11
555,211	6,11
555,554	6,1
555,896	6,1
556,238	6,07
556,581	6,04
556,923	6
557,265	5,97
557,607	5,95
557,949	5,94
558,291	5,9
558,633	5,87
558,975	5,86
559,317	5,82
559,659	5,8
560,001	5,76
560,343	5,73
560,685	5,71
561,026	5,69
561,368	5,65
561,71	5,62
562,051	5,58
562,393	5,56
562,734	5,53
563,076	5,5
563,417	5,5
563,759	5,5
564,1	5,52
564,441	5,52
564,782	5,51
565,124	5,49
565,465	5,48
565,806	5,45
566,147	5,41
566,488	5,38
566,829	5,36
567,17	5,34
567,511	5,31
567,851	5,28
568,192	5,27
568,533	5,26
568,874	5,26
569,214	5,26
569,555	5,23
569,895	5,22
570,236	5,2
570,576	5,19
570,917	5,17
571,257	5,14
571,598	5,11
571,938	5,09
572,278	5,07
572,618	5,05
572,959	5,06
573,299	5,08
573,639	5,08
573,979	5,08
574,319	5,08
574,659	5,09
574,999	5,08
575,339	5,08
575,678	5,08
576,018	5,08
576,358	5,06
576,698	5,04
577,037	5,03
577,377	5,02
577,716	4,99
578,056	4,97
578,395	4,95
578,735	4,91
579,074	4,89
579,413	4,87
579,753	4,83
580,092	4,77
580,431	4,72
580,77	4,7
581,109	4,66
581,448	4,64
581,787	4,6
582,126	4,58
582,465	4,54
582,804	4,51
583,143	4,49
583,482	4,47
583,82	4,44
584,159	4,43
584,498	4,41
584,836	4,39
585,175	4,37
585,514	4,36
585,852	4,37
586,19	4,36
586,529	4,34
586,867	4,35
587,205	4,37
587,544	4,39
587,882	4,39
588,22	4,4
588,558	4,41
588,896	4,42
589,234	4,42
589,572	4,42
589,91	4,4
590,248	4,39
590,586	4,38
590,924	4,39
591,262	4,39
591,599	4,38
591,937	4,4
592,275	4,41
592,612	4,41
592,95	4,4
593,287	4,4
593,625	4,43
593,962	4,44
594,299	4,47
594,637	4,5
594,974	4,54
595,311	4,55
595,648	4,55
595,985	4,57
596,322	4,55
596,659	4,57
596,996	4,6
597,333	4,6
597,67	4,59
598,007	4,58
598,344	4,57
598,681	4,58
599,017	4,57
599,354	4,56
599,691	4,55
600,027	4,56
600,364	4,57
600,7	4,57
601,037	4,58
601,373	4,58
601,71	4,57
602,046	4,55
602,382	4,55
602,718	4,56
603,054	4,56
603,391	4,58
603,727	4,57
604,063	4,56
604,399	4,57
604,735	4,59
605,071	4,6
605,406	4,6
605,742	4,6
606,078	4,63
606,414	4,65
606,749	4,68
607,085	4,71
607,421	4,73
607,756	4,73
608,092	4,72
608,427	4,71
608,762	4,69
609,098	4,67
609,433	4,64
609,768	4,61
610,104	4,58
610,439	4,54
610,774	4,52
611,109	4,51
611,444	4,49
611,779	4,46
612,114	4,46
612,449	4,46
612,784	4,45
613,118	4,4
613,453	4,36
613,788	4,32
614,123	4,25
614,457	4,19
614,792	4,14
615,126	4,1
615,461	4,06
615,795	4,06
616,13	4,01
616,464	3,98
616,798	3,96
617,132	3,95
617,467	3,93
617,801	3,93
618,135	3,91
618,469	3,91
618,803	3,92
619,137	3,9
619,471	3,89
619,805	3,89
620,139	3,89
620,472	3,9
620,806	3,9
621,14	3,9
621,473	3,88
621,807	3,86
622,141	3,84
622,474	3,83
622,808	3,8
623,141	3,81
623,474	3,85
623,808	3,87
624,141	3,92
624,474	3,98
624,807	4,01
625,141	4,03
625,474	4,06
625,807	4,09
626,14	4,1
626,473	4,11
626,806	4,12
627,138	4,14
627,471	4,14
627,804	4,13
628,137	4,13
628,469	4,16
628,802	4,2
629,135	4,2
629,467	4,21
629,8	4,25
630,132	4,26
630,465	4,27
630,797	4,27
631,129	4,25
631,461	4,22
631,794	4,2
632,126	4,19
632,458	4,18
632,79	4,19
633,122	4,2
633,454	4,2
633,786	4,19
634,118	4,17
634,45	4,18
634,781	4,17
635,113	4,18
635,445	4,17
635,777	4,15
636,108	4,15
636,44	4,15
636,771	4,12
637,103	4,1
637,434	4,1
637,765	4,08
638,097	4,03
638,428	3,98
638,759	3,97
639,09	3,95
639,422	3,9
639,753	3,86
640,084	3,8
640,415	3,77
640,746	3,74
641,077	3,74
641,407	3,74
641,738	3,72
642,069	3,72
642,4	3,72
642,73	3,72
643,061	3,72
643,392	3,7
643,722	3,71
644,053	3,7
644,383	3,68
644,713	3,7
645,044	3,74
645,374	3,77
645,704	3,75
646,034	3,72
646,365	3,71
646,695	3,7
647,025	3,73
647,355	3,76
647,685	3,8
648,015	3,8
648,344	3,79
648,674	3,81
649,004	3,8
649,334	3,8
649,663	3,81
649,993	3,83
650,323	3,87
650,652	3,86
650,982	3,87
651,311	3,86
651,64	3,8
651,97	3,77
652,299	3,75
652,628	3,78
652,958	3,81
653,287	3,85
653,616	3,89
653,945	3,91
654,274	3,91
654,603	3,91
654,932	3,92
655,261	3,94
655,589	3,96
655,918	3,97
656,247	3,98
656,576	4,02
656,904	4,07
657,233	4,08
657,561	4,11
657,89	4,15
658,218	4,2
658,547	4,25
658,875	4,3
659,203	4,34
659,532	4,34
659,86	4,37
660,188	4,36
660,516	4,36
660,844	4,37
661,172	4,38
661,5	4,4
661,828	4,4
662,156	4,38
662,484	4,37
662,811	4,37
663,139	4,35
663,467	4,32
663,794	4,25
664,122	4,24
664,45	4,21
664,777	4,16
665,104	4,14
665,432	4,13
665,759	4,11
666,086	4,09
666,414	4,09
666,741	4,07
667,068	4,09
667,395	4,1
667,722	4,11
668,049	4,09
668,376	4,04
668,703	4,03
669,03	4,05
669,357	4,02
669,683	4,01
670,01	3,98
670,337	3,98
670,663	3,99
670,99	3,95
671,317	3,98
671,643	3,99
671,969	3,94
672,296	3,9
672,622	3,88
672,948	3,84
673,275	3,79
673,601	3,77
673,927	3,75
674,253	3,73
674,579	3,68
674,905	3,61
675,231	3,6
675,557	3,57
675,883	3,54
676,209	3,53
676,534	3,52
676,86	3,53
677,186	3,58
677,511	3,58
677,837	3,64
678,162	3,63
678,488	3,65
678,813	3,76
679,139	3,85
679,464	3,87
679,789	3,89
680,114	3,94
680,44	3,97
680,765	3,99
681,09	4
681,415	3,99
681,74	4,02
682,065	4,05
682,39	4,1
682,714	4,11
683,039	4,13
683,364	4,15
683,689	4,13
684,013	4,08
684,338	4,06
684,662	4,04
684,987	4,01
685,311	4
685,636	3,92
685,96	3,81
686,284	3,76
686,608	3,7
686,933	3,64
687,257	3,61
687,581	3,61
687,905	3,65
688,229	3,69
688,553	3,69
688,877	3,67
689,201	3,61
689,524	3,61
689,848	3,63
690,172	3,59
690,496	3,56
690,819	3,53
691,143	3,53
691,466	3,53
691,79	3,54
692,113	3,51
692,436	3,52
692,76	3,59
693,083	3,63
693,406	3,66
693,729	3,65
694,053	3,61
694,376	3,56
694,699	3,49
695,022	3,49
695,344	3,56
695,667	3,64
695,99	3,79
696,313	3,95
696,636	4,04
696,958	4,14
697,281	4,24
697,604	4,31
697,926	4,35
698,249	4,33
698,571	4,32
698,893	4,3
699,216	4,27
699,538	4,22
699,86	4,2
700,182	4,25
700,504	4,29
700,827	4,29
701,149	4,26
701,471	4,23
701,793	4,16
702,114	4,11
702,436	4
702,758	3,84
703,08	3,6
703,401	3,42
703,723	3,32
704,045	3,23
704,366	3,17
704,688	3,13
705,009	3,1
705,331	3,09
705,652	3,16
705,973	3,21
706,294	3,23
706,616	3,22
706,937	3,17
707,258	3,09
707,579	3,08
707,9	3,11
708,221	3,17
708,542	3,21
708,863	3,26
709,183	3,36
709,504	3,47
709,825	3,6
710,145	3,68
710,466	3,71
710,787	3,7
711,107	3,75
711,427	3,76
711,748	3,76
712,068	3,81
712,388	3,85
712,709	3,9
713,029	3,95
713,349	4,01
713,669	4,07
713,989	4,15
714,309	4,24
714,629	4,3
714,949	4,35
715,269	4,39
715,589	4,42
715,908	4,36
716,228	4,27
716,548	4,27
716,867	4,27
717,187	4,29
717,506	4,35
717,826	4,33
718,145	4,36
718,465	4,44
718,784	4,38
719,103	4,32
719,422	4,27
719,741	4,27
720,061	4,29
720,38	4,37
720,699	4,47
721,018	4,55
721,336	4,66
721,655	4,78
721,974	4,89
722,293	5,02
722,612	5,21
722,93	5,4
723,249	5,5
723,567	5,63
723,886	5,77
724,204	5,89
724,523	6,05
724,841	6,19
725,159	6,3
725,477	6,5
725,796	6,67
726,114	6,83
726,432	6,97
726,75	7,1
727,068	7,18
727,386	7,26
727,704	7,35
728,022	7,42
728,339	7,51
728,657	7,58
728,975	7,62
729,292	7,67
729,61	7,74
729,928	7,88
730,245	8,02
730,562	8,15
730,88	8,26
731,197	8,4
731,514	8,47
731,832	8,56
732,149	8,61
732,466	8,67
732,783	8,72
733,1	8,82
733,417	8,92
733,734	9,05
734,051	9,11
734,368	9,14
734,684	9,27
735,001	9,36
735,318	9,49
735,634	9,65
735,951	9,72
736,268	9,8
736,584	9,84
736,9	9,92
737,217	9,98
737,533	10,07
737,849	10,12
738,166	10,27
738,482	10,41
738,798	10,59
739,114	10,75
739,43	10,95
739,746	11,05
740,062	11,09
740,378	11,13
740,693	11,32
741,009	11,58
741,325	11,65
741,641	11,65
741,956	11,67
742,272	11,74
742,587	11,88
742,903	11,95
743,218	11,95
743,533	11,97
743,849	12,05
744,164	12,11
744,479	12,22
744,794	12,3
745,109	12,37
745,424	12,47
745,739	12,51
746,054	12,52
746,369	12,5
746,684	12,63
746,999	12,76
747,313	12,77
747,628	12,69
747,943	12,68
748,257	12,81
748,572	12,95
748,886	13,07
749,201	13,19
749,515	13,34
749,829	13,5
750,144	13,65
750,458	13,71
750,772	13,83
751,086	13,93
751,4	14,03
751,714	14,07
752,028	14,14
752,342	14,19
752,656	14,36
752,97	14,54
753,284	14,68
753,597	14,75
753,911	14,87
754,225	15,07
754,538	15,19
754,852	15,18
755,165	15,17
755,478	15,15
755,792	15,17
756,105	15,23
756,418	15,31
756,731	15,28
757,045	15,26
757,358	15,25
757,671	15,26
757,984	15,28
758,297	15,31
758,609	15,31
758,922	15,36
759,235	15,3
759,548	15,24
759,86	15,08
760,173	14,86
760,486	14,66
760,798	14,48
761,111	14,36
761,423	14,28
761,735	14,3
762,048	14,3
762,36	14,33
762,672	14,4
762,984	14,43
763,296	14,45
763,608	14,54
763,92	14,57
764,232	14,58
764,544	14,61
764,856	14,71
765,168	14,8
765,48	14,93
765,791	15,04
766,103	15,17
766,414	15,36
766,726	15,66
767,037	15,99
767,349	16,34
767,66	16,73
767,972	17,16
768,283	17,5
768,594	17,8
768,905	17,96
769,216	18,15
769,527	18,4
769,838	18,69
770,149	18,96
770,46	19,16
770,771	19,4
771,082	19,58
771,393	19,78
771,703	19,98
772,014	20,2
772,324	20,4
772,635	20,57
772,945	20,8
773,256	21,03
773,566	21,24
773,877	21,3
774,187	21,42
774,497	21,63
774,807	21,7
775,117	21,79
775,427	21,97
775,737	22,12
776,047	22,33
776,357	22,4
776,667	22,41
776,977	22,74
777,287	23,07
777,596	23,18
777,906	23,23
778,216	23,3
778,525	23,43
778,835	23,57
779,144	23,9
779,453	24,23
779,763	24,31
780,072	24,34
780,381	24,52
780,69	24,56
781	24,69
781,309	24,92
781,618	25,13
781,927	25,41
782,235	25,53
782,544	25,65
782,853	25,98
783,162	26,32
783,471	26,17
783,779	26,07
784,088	26,2
784,396	26,41
784,705	26,39
785,013	26,07
785,322	25,83
785,63	25,66
785,938	25,31
786,246	25,2
786,554	25,23
786,863	25,2
787,171	25,23
787,479	25,12
787,787	25,07
788,094	25,07
788,402	24,93
788,71	24,95
789,018	24,98
789,326	24,88
789,633	24,65
789,941	24,66
790,248	24,79
790,556	24,82
790,863	24,79
791,171	24,93
791,478	25,1
791,785	25,35
792,092	25,27
792,399	25,31
792,707	25,43
793,014	25,6
793,321	25,85
793,628	26,11
793,934	26,33
794,241	26,51
794,548	26,59
794,855	26,76
795,161	26,92
795,468	26,83
795,775	26,76
796,081	27
796,388	27,25
796,694	27,33
797	27,38
797,307	27,49
797,613	27,44
797,919	27,56
798,225	27,71
798,531	28,05
798,837	28,36
799,143	28,5
799,449	28,4
799,755	28,54
800,061	28,73
800,367	28,91
800,672	29,09
800,978	29,37
801,284	29,56
801,589	29,57
801,895	29,75
802,2	30,11
802,506	30,29
802,811	30,22
803,116	30,3
803,421	30,43
803,727	30,48
804,032	30,75
804,337	30,9
804,642	30,96
804,947	30,93
805,252	30,88
805,556	30,98
805,861	31,25
806,166	31,13
806,471	30,9
806,775	30,89
807,08	30,88
807,384	30,66
807,689	30,61
807,993	30,78
808,298	31,04
808,602	31,16
808,906	31,36
809,211	31,74
809,515	31,89
809,819	32
810,123	32,12
810,427	32,27
810,731	32,47
811,035	32,55
811,338	32,55
811,642	32,88
811,946	33,14
812,25	33,29
812,553	33,25
812,857	33,21
813,16	33,08
813,464	32,94
813,767	33,04
814,07	33,02
814,374	32,85
814,677	32,77
814,98	32,48
815,283	32,09
815,586	31,72
815,889	31,61
816,192	31,6
816,495	31,54
816,798	31,14
817,101	30,55
817,404	29,96
817,706	29,45
818,009	28,38
818,312	27,22
818,614	25,9
818,917	24,24
819,219	22,18
819,521	20,11
819,824	18,39
820,126	17,05
820,428	16,19
820,73	15,65
821,032	15,13
821,334	14,8
821,636	14,58
821,938	14,44
822,24	14,28
822,542	14,15
822,844	14,11
823,145	14,1
823,447	14,06
823,749	13,99
824,05	13,91
824,352	13,9
824,653	13,93
824,955	13,95
825,256	14,03
825,557	14,27
825,858	14,65
826,16	15,09
826,461	15,63
826,762	16,14
827,063	16,64
827,364	17,24
827,665	17,81
827,965	18,39
828,266	18,89
828,567	19,33
828,868	19,65
829,168	19,88
829,469	20,09
829,769	20,4
830,07	20,86
830,37	21,45
830,67	21,92
830,971	22,19
831,271	22,39
831,571	22,52
831,871	22,75
832,171	22,83
832,471	22,93
832,771	22,93
833,071	22,92
833,371	22,87
833,671	22,88
833,971	22,8
834,27	22,64
834,57	22,75
834,869	22,94
835,169	23,16
835,468	23,43
835,768	23,83
836,067	24,12
836,367	24,29
836,666	24,4
836,965	24,81
837,264	25,54
837,563	26,69
837,862	27,99
838,161	28,79
838,46	29,67
838,759	30,67
839,058	31,59
839,356	32,61
839,655	33,62
839,954	34,32
840,252	35,26
840,551	36,28
840,849	36,93
841,148	37,8
841,446	38,45
841,744	38,48
842,043	38,52
842,341	38,9
842,639	39,25
842,937	39,71
843,235	40,35
843,533	40,95
843,831	41,67
844,129	42,7
844,427	44,45
844,724	46,17
845,022	47,8
845,32	49,35
845,617	50,39
845,915	51,25
846,212	52,45
846,51	53,59
846,807	54,27
847,104	54,73
847,402	54,67
847,699	55,22
847,996	56,23
848,293	56,84
848,59	57,17
848,887	57,23
849,184	56,99
849,481	56,95
849,778	57,21
850,074	57,22
850,371	57,01
850,668	56,71
850,964	56,32
851,261	56,03
851,557	55,78
851,854	56,22
852,15	56,6
852,446	56,97
852,743	56,97
853,039	57,76
853,335	58,08
853,631	58,28
853,927	57,81
854,223	57,35
854,519	57,4
854,815	57,6
855,111	58,14
855,406	58,87
855,702	59,94
855,998	60,8
856,293	61,25
856,589	61,53
856,884	61,41
857,18	61,25
857,475	61,33
857,77	61,7
858,066	61,58
858,361	61,44
858,656	61,3
858,951	61,2
859,246	60,74
859,541	60,28
859,836	60,2
860,131	60,18
860,426	59,97
860,72	59,31
861,015	58,69
861,31	58,52
861,604	58,9
861,899	58,33
862,193	57,76
862,487	57,26
862,782	56,66
863,076	56,78
863,37	57,3
863,664	57,41
863,959	57,15
864,253	56,94
864,547	56,97
864,841	56,9
865,135	57,03
865,428	57,09
865,722	57,31
866,016	57,37
866,31	57,41
866,603	57,72
866,897	57,91
867,19	57,97
867,484	58,37
867,777	58,34
868,07	58,55
868,364	59,01
868,657	59,39
868,95	59,98
869,243	59,86
869,536	59,79
869,829	59,94
870,122	60,29
870,415	60,22
870,708	59,88
871	59,23
871,293	58,68
871,586	58,72
871,878	58,52
872,171	58
872,463	57,86
872,756	57,95
873,048	57,53
873,341	57,74
873,633	57,36
873,925	56,8
874,217	56,01
874,509	54,98
874,801	54,44
875,093	54,12
875,385	53,83
875,677	53,06
875,969	51,92
