Data from zc74051_4_Reflection_00005.txt Node
Date: Thu Mar 12 15:05:25 ART 2020
User: Ana
Spectrometer: USB2E3644
Trigger mode: 4
Integration Time (sec): 5,000000E-2
Scans to average: 10
Electric dark correction enabled: true
Nonlinearity correction enabled: false
Boxcar width: 10
XAxis mode: Wavelengths
Number of Pixels in Spectrum: 2048
>>>>>Begin Spectral Data<<<<<
178,315	118,86
178,696	122,97
179,076	140,85
179,457	142,34
179,838	121,15
180,218	112,12
180,599	91,67
180,979	-10,53
181,36	103,33
181,74	92,42
182,121	85,56
182,501	100,9
182,881	93,28
183,262	92,52
183,642	91,95
184,022	93,81
184,402	91,41
184,783	88,9
185,163	87,89
185,543	86,51
185,923	86,47
186,303	87,64
186,683	88,45
187,063	88,5
187,443	87,86
187,823	84,85
188,203	82,56
188,583	81,97
188,963	81,89
189,343	82,49
189,723	83,28
190,102	83,61
190,482	83,44
190,862	83,82
191,242	85,28
191,621	87,63
192,001	89,09
192,38	90,04
192,76	91,34
193,14	92,29
193,519	92,94
193,898	92,67
194,278	92,25
194,657	91,83
195,037	92,07
195,416	91,78
195,795	92,55
196,175	94,58
196,554	96,06
196,933	97,3
197,312	98,59
197,692	100,05
198,071	101,91
198,45	104,49
198,829	106,35
199,208	106,84
199,587	107,06
199,966	107,55
200,345	108,1
200,724	108,05
201,103	107,3
201,482	106,72
201,86	106,51
202,239	105,86
202,618	105,56
202,997	105,78
203,375	106,32
203,754	106,21
204,133	105,01
204,511	103,9
204,89	102,89
205,269	101,36
205,647	99,59
206,026	98,13
206,404	96,58
206,782	95,72
207,161	94,91
207,539	94,04
207,918	92,86
208,296	92,14
208,674	92,22
209,052	93,19
209,431	93,73
209,809	93,91
210,187	94,01
210,565	94,62
210,943	95,09
211,321	95,63
211,699	96,15
212,077	96,68
212,455	97,3
212,833	97,72
213,211	97,62
213,589	97,49
213,967	98,03
214,345	98,24
214,722	98,06
215,1	97,86
215,478	98,04
215,855	98,89
216,233	99,26
216,611	99,15
216,988	99,15
217,366	99,16
217,743	99,17
218,121	98,69
218,498	97,53
218,876	96,59
219,253	95,87
219,631	95,01
220,008	94,88
220,385	94,17
220,762	94,26
221,14	94,87
221,517	95,98
221,894	96,56
222,271	97,29
222,648	98,02
223,025	98,5
223,402	98,96
223,78	98,62
224,157	98,37
224,533	98,9
224,91	99,42
225,287	100,31
225,664	101,32
226,041	103,91
226,418	106,89
226,795	108,38
227,171	109,05
227,548	110,28
227,925	110,95
228,301	111,76
228,678	111,81
229,055	112,28
229,431	112,9
229,808	113,01
230,184	112,92
230,561	113,4
230,937	113,73
231,313	113,91
231,69	114,91
232,066	116,78
232,442	118,08
232,819	118,62
233,195	118,63
233,571	119,4
233,947	118,65
234,323	117,55
234,699	118,51
235,075	120,16
235,451	121,98
235,827	124,27
236,203	127,59
236,579	131,41
236,955	134,76
237,331	137,8
237,707	142,42
238,083	149,61
238,459	158,91
238,834	173,8
239,21	194,2
239,586	218,88
239,961	239,86
240,337	255,81
240,713	267,92
241,088	281,94
241,464	294,15
241,839	310,57
242,215	340,25
242,59	417,01
242,965	733,64
243,341	-3927,42
243,716	-485,34
244,091	-276,61
244,467	-206,99
244,842	-170,06
245,217	-145,56
245,592	-132,95
245,967	-130,33
246,343	-125,13
246,718	-121,73
247,093	-124,66
247,468	-128,87
247,843	-128,76
248,218	-123,45
248,593	-113,07
248,967	-103,12
249,342	-97,31
249,717	-94,08
250,092	-91,78
250,467	-93,48
250,841	-101,62
251,216	-119,02
251,591	-147,38
251,965	-180,01
252,34	-211,66
252,714	-251,86
253,089	-302,62
253,463	-344,3
253,838	-347,82
254,212	-342,47
254,587	-313,02
254,961	-251,9
255,335	-195,89
255,71	-149,87
256,084	-107,91
256,458	-81,82
256,832	-67,29
257,206	-59,59
257,581	-55,83
257,955	-53,89
258,329	-51,82
258,703	-49,17
259,077	-46,95
259,451	-44,83
259,825	-44,12
260,199	-44,4
260,572	-43,94
260,946	-43,79
261,32	-43,61
261,694	-42,87
262,068	-42,54
262,441	-42,08
262,815	-42,24
263,189	-41,86
263,562	-42,5
263,936	-45,57
264,309	-50,86
264,683	-56,77
265,056	-59,78
265,43	-60,27
265,803	-59,43
266,176	-58,1
266,55	-57,37
266,923	-56,73
267,296	-55,64
267,67	-53,49
268,043	-51,53
268,416	-48,94
268,789	-45,77
269,162	-42,45
269,535	-39,79
269,908	-37,66
270,281	-36,49
270,654	-36,2
271,027	-36,87
271,4	-37,27
271,773	-37,59
272,146	-37,65
272,519	-37,51
272,891	-37,78
273,264	-38,02
273,637	-37,81
274,01	-37,53
274,382	-38,16
274,755	-38,44
275,127	-38,7
275,5	-38,83
275,872	-38,56
276,245	-38,51
276,617	-38,96
276,99	-39,75
277,362	-40,81
277,734	-41,37
278,107	-41,44
278,479	-40,85
278,851	-39,86
279,223	-38,93
279,596	-37,92
279,968	-37,31
280,34	-36,65
280,712	-35,76
281,084	-34,52
281,456	-33,4
281,828	-32,02
282,2	-29,59
282,572	-27,76
282,944	-26,34
283,315	-25,43
283,687	-24,7
284,059	-24,31
284,431	-24,05
284,802	-23,6
285,174	-23,11
285,546	-22,6
285,917	-21,9
286,289	-21,26
286,66	-20,8
287,032	-20,4
287,403	-20,2
287,775	-20,05
288,146	-20,19
288,518	-20,37
288,889	-20,27
289,26	-20,15
289,632	-20,51
290,003	-21,23
290,374	-21,66
290,745	-22,06
291,116	-22,21
291,487	-22,32
291,858	-22,17
292,229	-22,01
292,6	-21,68
292,971	-20,9
293,342	-20,17
293,713	-19,45
294,084	-18,73
294,455	-17,91
294,826	-17,47
295,196	-17,28
295,567	-17,29
295,938	-16,91
296,308	-16,56
296,679	-16,23
297,05	-15,96
297,42	-15,43
297,791	-14,92
298,161	-14,77
298,532	-14,49
298,902	-14,18
299,272	-13,95
299,643	-13,88
300,013	-13,57
300,383	-13,28
300,754	-13,38
301,124	-13,63
301,494	-13,94
301,864	-14,24
302,234	-14,59
302,604	-14,74
302,974	-14,64
303,344	-14,33
303,714	-14,11
304,084	-13,69
304,454	-13,54
304,824	-13,39
305,194	-13,35
305,563	-13,29
305,933	-12,98
306,303	-12,56
306,673	-11,9
307,042	-11,08
307,412	-10,28
307,781	-9,65
308,151	-9,38
308,521	-8,99
308,89	-8,56
309,259	-8,42
309,629	-8,33
309,998	-8,25
310,368	-8,13
310,737	-7,96
311,106	-7,85
311,475	-7,77
311,845	-7,96
312,214	-7,93
312,583	-7,87
312,952	-7,76
313,321	-7,61
313,69	-7,33
314,059	-7,17
314,428	-7,3
314,797	-7,62
315,166	-8
315,535	-8,38
315,904	-8,68
316,272	-8,97
316,641	-9,18
317,01	-9,08
317,379	-8,99
317,747	-8,68
318,116	-8,24
318,484	-7,91
318,853	-7,65
319,221	-7,5
319,59	-7,31
319,958	-7,09
320,327	-6,8
320,695	-6,65
321,063	-6,5
321,432	-6,39
321,8	-6,05
322,168	-5,72
322,536	-5,5
322,905	-5
323,273	-4,58
323,641	-4,2
324,009	-3,85
324,377	-3,51
324,745	-3,1
325,113	-2,63
325,481	-2,25
325,849	-2,01
326,216	-1,76
326,584	-1,5
326,952	-1,18
327,32	-0,7
327,687	-0,34
328,055	-0,03
328,423	0,25
328,79	0,39
329,158	0,45
329,525	0,38
329,893	0,51
330,26	0,83
330,628	1,05
330,995	1,33
331,362	1,51
331,73	1,67
332,097	1,82
332,464	1,89
332,831	1,99
333,199	2,07
333,566	2,18
333,933	2,39
334,3	2,62
334,667	2,76
335,034	2,76
335,401	2,75
335,768	2,78
336,135	2,89
336,502	3,06
336,868	3,25
337,235	3,43
337,602	3,5
337,969	3,57
338,335	3,64
338,702	3,75
339,069	3,88
339,435	3,98
339,802	4,11
340,168	4,18
340,535	4,3
340,901	4,35
341,267	4,36
341,634	4,43
342	4,53
342,366	4,71
342,733	4,83
343,099	5,02
343,465	5,14
343,831	5,27
344,197	5,46
344,563	5,58
344,929	5,69
345,295	5,83
345,661	5,92
346,027	5,99
346,393	6,08
346,759	6,22
347,125	6,4
347,491	6,54
347,856	6,66
348,222	6,73
348,588	6,92
348,953	7,15
349,319	7,16
349,684	7,18
350,05	7,21
350,415	7,35
350,781	7,38
351,146	7,5
351,512	7,63
351,877	7,71
352,242	7,77
352,608	7,87
352,973	8,01
353,338	8,19
353,703	8,35
354,068	8,46
354,433	8,55
354,798	8,63
355,164	8,7
355,528	8,77
355,893	8,8
356,258	8,75
356,623	8,79
356,988	8,95
357,353	9,11
357,718	9,23
358,082	9,36
358,447	9,51
358,812	9,65
359,176	9,74
359,541	9,88
359,905	10,02
360,27	10,16
360,634	10,21
360,999	10,24
361,363	10,3
361,728	10,37
362,092	10,48
362,456	10,56
362,821	10,69
363,185	10,84
363,549	11
363,913	11,14
364,277	11,26
364,641	11,29
365,005	11,34
365,369	11,39
365,733	11,45
366,097	11,52
366,461	11,61
366,825	11,73
367,189	11,82
367,553	11,96
367,916	12,13
368,28	12,29
368,644	12,46
369,007	12,57
369,371	12,71
369,734	12,83
370,098	12,96
370,461	13,04
370,825	13,12
371,188	13,19
371,552	13,28
371,915	13,35
372,278	13,6
372,642	13,8
373,005	13,99
373,368	14,19
373,731	14,36
374,094	14,46
374,457	14,55
374,82	14,71
375,183	14,78
375,546	14,85
375,909	14,97
376,272	15,08
376,635	15,23
376,998	15,34
377,361	15,46
377,723	15,56
378,086	15,63
378,449	15,72
378,811	15,82
379,174	15,93
379,537	16,05
379,899	16,05
380,262	16,07
380,624	16,11
380,987	16,16
381,349	16,23
381,711	16,37
382,074	16,49
382,436	16,58
382,798	16,77
383,16	16,82
383,522	16,85
383,884	16,92
384,247	16,95
384,609	17,09
384,971	17,13
385,333	17,15
385,695	17,21
386,056	17,27
386,418	17,34
386,78	17,41
387,142	17,47
387,504	17,54
387,865	17,59
388,227	17,62
388,589	17,68
388,95	17,74
389,312	17,75
389,673	17,8
390,035	17,8
390,396	17,8
390,758	17,84
391,119	17,87
391,48	17,91
391,842	17,97
392,203	17,98
392,564	18,04
392,925	18,12
393,286	18,18
393,648	18,26
394,009	18,31
394,37	18,33
394,731	18,39
395,092	18,43
395,452	18,54
395,813	18,64
396,174	18,68
396,535	18,71
396,896	18,72
397,257	18,77
397,617	18,82
397,978	18,87
398,338	18,91
398,699	18,96
399,06	19,05
399,42	19,07
399,781	19,06
400,141	19,05
400,501	19,08
400,862	19,11
401,222	19,16
401,582	19,17
401,943	19,23
402,303	19,23
402,663	19,25
403,023	19,24
403,383	19,26
403,743	19,25
404,103	19,28
404,463	19,34
404,823	19,36
405,183	19,39
405,543	19,41
405,903	19,45
406,262	19,53
406,622	19,49
406,982	19,5
407,342	19,58
407,701	19,65
408,061	19,68
408,42	19,74
408,78	19,75
409,139	19,76
409,499	19,78
409,858	19,83
410,217	19,86
410,577	19,85
410,936	19,86
411,295	19,88
411,655	19,9
412,014	19,9
412,373	19,89
412,732	19,87
413,091	19,86
413,45	19,82
413,809	19,76
414,168	19,74
414,527	19,75
414,886	19,69
415,245	19,65
415,603	19,6
415,962	19,57
416,321	19,55
416,679	19,54
417,038	19,52
417,397	19,51
417,755	19,46
418,114	19,46
418,472	19,44
418,831	19,43
419,189	19,4
419,547	19,39
419,906	19,37
420,264	19,36
420,622	19,36
420,981	19,37
421,339	19,38
421,697	19,4
422,055	19,38
422,413	19,43
422,771	19,45
423,129	19,48
423,487	19,5
423,845	19,52
424,203	19,56
424,56	19,59
424,918	19,61
425,276	19,67
425,634	19,71
425,991	19,75
426,349	19,8
426,707	19,87
427,064	19,91
427,422	19,95
427,779	20,01
428,137	20,06
428,494	20,13
428,851	20,2
429,209	20,23
429,566	20,27
429,923	20,24
430,28	20,25
430,637	20,28
430,995	20,26
431,352	20,27
431,709	20,24
432,066	20,26
432,423	20,28
432,78	20,28
433,137	20,29
433,493	20,32
433,85	20,34
434,207	20,33
434,564	20,33
434,92	20,36
435,277	20,36
435,634	20,38
435,99	20,35
436,347	20,33
436,703	20,37
437,06	20,38
437,416	20,4
437,773	20,38
438,129	20,37
438,485	20,42
438,841	20,42
439,198	20,42
439,554	20,42
439,91	20,42
440,266	20,44
440,622	20,45
440,978	20,42
441,334	20,4
441,69	20,39
442,046	20,39
442,402	20,38
442,758	20,37
443,113	20,36
443,469	20,36
443,825	20,36
444,181	20,36
444,536	20,39
444,892	20,4
445,247	20,44
445,603	20,47
445,958	20,48
446,314	20,51
446,669	20,52
447,025	20,56
447,38	20,55
447,735	20,58
448,09	20,6
448,446	20,62
448,801	20,64
449,156	20,68
449,511	20,72
449,866	20,78
450,221	20,81
450,576	20,88
450,931	20,96
451,286	21,03
451,641	21,05
451,995	21,08
452,35	21,13
452,705	21,13
453,06	21,14
453,414	21,16
453,769	21,16
454,123	21,17
454,478	21,17
454,832	21,19
455,187	21,17
455,541	21,15
455,896	21,12
456,25	21,09
456,604	21,07
456,958	21,05
457,313	21,05
457,667	21,05
458,021	21,04
458,375	21,05
458,729	21,07
459,083	21,09
459,437	21,09
459,791	21,09
460,145	21,1
460,499	21,11
460,852	21,1
461,206	21,12
461,56	21,12
461,914	21,12
462,267	21,12
462,621	21,15
462,974	21,17
463,328	21,21
463,681	21,25
464,035	21,3
464,388	21,32
464,742	21,32
465,095	21,35
465,448	21,39
465,801	21,37
466,155	21,36
466,508	21,35
466,861	21,34
467,214	21,36
467,567	21,37
467,92	21,38
468,273	21,4
468,626	21,39
468,979	21,39
469,332	21,4
469,684	21,4
470,037	21,39
470,39	21,4
470,743	21,44
471,095	21,47
471,448	21,47
471,8	21,48
472,153	21,54
472,505	21,55
472,858	21,55
473,21	21,57
473,562	21,57
473,915	21,59
474,267	21,61
474,619	21,59
474,971	21,58
475,324	21,58
475,676	21,58
476,028	21,6
476,38	21,63
476,732	21,64
477,084	21,64
477,436	21,65
477,787	21,65
478,139	21,64
478,491	21,63
478,843	21,63
479,195	21,62
479,546	21,58
479,898	21,58
480,249	21,56
480,601	21,59
480,952	21,57
481,304	21,56
481,655	21,52
482,007	21,49
482,358	21,48
482,709	21,46
483,061	21,44
483,412	21,43
483,763	21,42
484,114	21,41
484,465	21,4
484,816	21,39
485,167	21,38
485,518	21,37
485,869	21,37
486,22	21,37
486,571	21,37
486,922	21,37
487,272	21,36
487,623	21,36
487,974	21,33
488,324	21,33
488,675	21,33
489,025	21,35
489,376	21,38
489,726	21,4
490,077	21,43
490,427	21,45
490,778	21,47
491,128	21,49
491,478	21,52
491,828	21,57
492,179	21,6
492,529	21,64
492,879	21,66
493,229	21,68
493,579	21,71
493,929	21,72
494,279	21,75
494,629	21,78
494,979	21,8
495,328	21,83
495,678	21,88
496,028	21,93
496,378	21,98
496,727	22,03
497,077	22,05
497,426	22,07
497,776	22,09
498,125	22,12
498,475	22,14
498,824	22,16
499,174	22,15
499,523	22,16
499,872	22,16
500,221	22,18
500,571	22,19
500,92	22,2
501,269	22,24
501,618	22,23
501,967	22,23
502,316	22,25
502,665	22,28
503,014	22,28
503,363	22,3
503,711	22,29
504,06	22,28
504,409	22,27
504,758	22,27
505,106	22,28
505,455	22,26
505,803	22,26
506,152	22,24
506,5	22,23
506,849	22,22
507,197	22,21
507,546	22,22
507,894	22,21
508,242	22,23
508,59	22,2
508,939	22,22
509,287	22,21
509,635	22,21
509,983	22,21
510,331	22,19
510,679	22,18
511,027	22,19
511,375	22,18
511,723	22,2
512,07	22,21
512,418	22,22
512,766	22,23
513,114	22,23
513,461	22,24
513,809	22,26
514,156	22,27
514,504	22,27
514,851	22,27
515,199	22,26
515,546	22,25
515,893	22,28
516,241	22,29
516,588	22,29
516,935	22,29
517,282	22,3
517,63	22,33
517,977	22,35
518,324	22,35
518,671	22,37
519,018	22,35
519,365	22,37
519,711	22,34
520,058	22,35
520,405	22,35
520,752	22,36
521,099	22,36
521,445	22,41
521,792	22,42
522,138	22,41
522,485	22,43
522,832	22,43
523,178	22,42
523,524	22,41
523,871	22,42
524,217	22,41
524,563	22,38
524,91	22,35
525,256	22,35
525,602	22,32
525,948	22,31
526,294	22,3
526,64	22,26
526,986	22,26
527,332	22,25
527,678	22,24
528,024	22,25
528,37	22,25
528,716	22,23
529,061	22,23
529,407	22,25
529,753	22,25
530,098	22,26
530,444	22,27
530,789	22,27
531,135	22,28
531,48	22,28
531,826	22,28
532,171	22,29
532,516	22,29
532,862	22,31
533,207	22,34
533,552	22,36
533,897	22,4
534,242	22,43
534,587	22,46
534,932	22,47
535,277	22,48
535,622	22,48
535,967	22,51
536,312	22,53
536,657	22,54
537,001	22,54
537,346	22,55
537,691	22,57
538,035	22,57
538,38	22,55
538,724	22,54
539,069	22,56
539,413	22,56
539,758	22,55
540,102	22,55
540,446	22,54
540,791	22,56
541,135	22,56
541,479	22,56
541,823	22,56
542,167	22,56
542,512	22,58
542,856	22,57
543,2	22,56
543,543	22,56
543,887	22,56
544,231	22,58
544,575	22,58
544,919	22,57
545,262	22,59
545,606	22,61
545,95	22,65
546,293	22,65
546,637	22,66
546,98	22,7
547,324	22,72
547,667	22,77
548,011	22,76
548,354	22,77
548,697	22,77
549,04	22,77
549,384	22,78
549,727	22,77
550,07	22,78
550,413	22,78
550,756	22,76
551,099	22,76
551,442	22,76
551,785	22,78
552,128	22,81
552,47	22,81
552,813	22,84
553,156	22,82
553,499	22,84
553,841	22,86
554,184	22,84
554,526	22,83
554,869	22,78
555,211	22,8
555,554	22,79
555,896	22,78
556,238	22,78
556,581	22,8
556,923	22,76
557,265	22,76
557,607	22,76
557,949	22,77
558,291	22,76
558,633	22,75
558,975	22,71
559,317	22,69
559,659	22,66
560,001	22,62
560,343	22,59
560,685	22,56
561,026	22,52
561,368	22,49
561,71	22,47
562,051	22,47
562,393	22,46
562,734	22,45
563,076	22,45
563,417	22,43
563,759	22,38
564,1	22,4
564,441	22,4
564,782	22,38
565,124	22,35
565,465	22,34
565,806	22,31
566,147	22,3
566,488	22,28
566,829	22,27
567,17	22,27
567,511	22,26
567,851	22,28
568,192	22,27
568,533	22,27
568,874	22,27
569,214	22,27
569,555	22,25
569,895	22,21
570,236	22,18
570,576	22,14
570,917	22,12
571,257	22,09
571,598	22,05
571,938	22,04
572,278	22,04
572,618	22,04
572,959	22,07
573,299	22,08
573,639	22,06
573,979	22,05
574,319	22,04
574,659	22,02
574,999	22,02
575,339	21,99
575,678	21,96
576,018	21,93
576,358	21,89
576,698	21,85
577,037	21,86
577,377	21,85
577,716	21,88
578,056	21,88
578,395	21,84
578,735	21,86
579,074	21,84
579,413	21,82
579,753	21,75
580,092	21,74
580,431	21,7
580,77	21,7
581,109	21,66
581,448	21,63
581,787	21,65
582,126	21,63
582,465	21,64
582,804	21,62
583,143	21,66
583,482	21,68
583,82	21,68
584,159	21,69
584,498	21,68
584,836	21,71
585,175	21,7
585,514	21,72
585,852	21,71
586,19	21,73
586,529	21,73
586,867	21,8
587,205	21,78
587,544	21,77
587,882	21,75
588,22	21,78
588,558	21,79
588,896	21,79
589,234	21,76
589,572	21,77
589,91	21,77
590,248	21,73
590,586	21,73
590,924	21,73
591,262	21,73
591,599	21,7
591,937	21,67
592,275	21,66
592,612	21,68
592,95	21,7
593,287	21,7
593,625	21,71
593,962	21,71
594,299	21,74
594,637	21,76
594,974	21,76
595,311	21,78
595,648	21,76
595,985	21,77
596,322	21,76
596,659	21,77
596,996	21,81
597,333	21,8
597,67	21,78
598,007	21,76
598,344	21,77
598,681	21,8
599,017	21,78
599,354	21,81
599,691	21,79
600,027	21,81
600,364	21,82
600,7	21,86
601,037	21,88
601,373	21,89
601,71	21,93
602,046	22
602,382	22
602,718	22,02
603,054	22,01
603,391	22,01
603,727	22
604,063	21,97
604,399	21,97
604,735	22,02
605,071	22,03
605,406	22,01
605,742	22,01
606,078	22,01
606,414	22
606,749	22,01
607,085	22
607,421	22
607,756	21,96
608,092	21,89
608,427	21,87
608,762	21,81
609,098	21,75
609,433	21,73
609,768	21,75
610,104	21,72
610,439	21,73
610,774	21,72
611,109	21,73
611,444	21,74
611,779	21,71
612,114	21,7
612,449	21,73
612,784	21,71
613,118	21,72
613,453	21,69
613,788	21,67
614,123	21,59
614,457	21,54
614,792	21,51
615,126	21,52
615,461	21,49
615,795	21,53
616,13	21,55
616,464	21,55
616,798	21,54
617,132	21,53
617,467	21,54
617,801	21,56
618,135	21,59
618,469	21,6
618,803	21,6
619,137	21,62
619,471	21,58
619,805	21,55
620,139	21,54
620,472	21,54
620,806	21,53
621,14	21,53
621,473	21,55
621,807	21,56
622,141	21,58
622,474	21,57
622,808	21,55
623,141	21,53
623,474	21,55
623,808	21,52
624,141	21,53
624,474	21,59
624,807	21,59
625,141	21,58
625,474	21,56
625,807	21,57
626,14	21,55
626,473	21,58
626,806	21,59
627,138	21,62
627,471	21,58
627,804	21,61
628,137	21,64
628,469	21,65
628,802	21,67
629,135	21,66
629,467	21,72
629,8	21,72
630,132	21,74
630,465	21,72
630,797	21,72
631,129	21,73
631,461	21,66
631,794	21,68
632,126	21,66
632,458	21,7
632,79	21,69
633,122	21,71
633,454	21,67
633,786	21,65
634,118	21,62
634,45	21,67
634,781	21,69
635,113	21,71
635,445	21,71
635,777	21,67
636,108	21,63
636,44	21,59
636,771	21,6
637,103	21,57
637,434	21,55
637,765	21,54
638,097	21,53
638,428	21,51
638,759	21,48
639,09	21,47
639,422	21,47
639,753	21,48
640,084	21,47
640,415	21,47
640,746	21,49
641,077	21,51
641,407	21,5
641,738	21,45
642,069	21,43
642,4	21,43
642,73	21,46
643,061	21,49
643,392	21,52
643,722	21,52
644,053	21,52
644,383	21,5
644,713	21,51
645,044	21,54
645,374	21,56
645,704	21,55
646,034	21,53
646,365	21,54
646,695	21,51
647,025	21,54
647,355	21,6
647,685	21,64
648,015	21,64
648,344	21,63
648,674	21,66
649,004	21,62
649,334	21,61
649,663	21,68
649,993	21,69
650,323	21,66
650,652	21,63
650,982	21,64
651,311	21,67
651,64	21,68
651,97	21,7
652,299	21,7
652,628	21,75
652,958	21,79
653,287	21,77
653,616	21,78
653,945	21,75
654,274	21,77
654,603	21,74
654,932	21,75
655,261	21,76
655,589	21,78
655,918	21,85
656,247	21,88
656,576	21,85
656,904	21,89
657,233	21,97
657,561	22,06
657,89	22,08
658,218	22,08
658,547	22,12
658,875	22,17
659,203	22,23
659,532	22,21
659,86	22,22
660,188	22,2
660,516	22,22
660,844	22,22
661,172	22,19
661,5	22,19
661,828	22,24
662,156	22,28
662,484	22,26
662,811	22,23
663,139	22,24
663,467	22,18
663,794	22,17
664,122	22,13
664,45	22,08
664,777	22,06
665,104	22,13
665,432	22,06
665,759	21,93
666,086	21,87
666,414	21,88
666,741	21,88
667,068	21,9
667,395	21,9
667,722	21,91
668,049	21,88
668,376	21,9
668,703	21,87
669,03	21,86
669,357	21,86
669,683	21,86
670,01	21,86
670,337	21,91
670,663	21,84
670,99	21,78
671,317	21,75
671,643	21,73
671,969	21,63
672,296	21,64
672,622	21,67
672,948	21,69
673,275	21,68
673,601	21,67
673,927	21,65
674,253	21,63
674,579	21,64
674,905	21,73
675,231	21,7
675,557	21,68
675,883	21,63
676,209	21,63
676,534	21,58
676,86	21,56
677,186	21,59
677,511	21,72
677,837	21,78
678,162	21,79
678,488	21,8
678,813	21,88
679,139	21,94
679,464	21,97
679,789	21,97
680,114	21,94
680,44	21,91
680,765	21,91
681,09	21,97
681,415	21,97
681,74	21,94
682,065	21,94
682,39	21,93
682,714	21,96
683,039	21,97
683,364	22,05
683,689	22,09
684,013	22,08
684,338	21,97
684,662	21,95
684,987	21,97
685,311	22,04
685,636	22,02
685,96	21,99
686,284	21,94
686,608	21,82
686,933	21,85
687,257	21,91
687,581	21,92
687,905	21,93
688,229	21,96
688,553	21,92
688,877	21,94
689,201	22,02
689,524	22,05
689,848	22,05
690,172	21,99
690,496	21,94
690,819	21,94
691,143	21,99
691,466	22,02
691,79	22,01
692,113	21,96
692,436	21,94
692,76	21,93
693,083	22,01
693,406	22,07
693,729	22,02
694,053	21,99
694,376	21,97
694,699	21,91
695,022	21,89
695,344	21,99
695,667	22,02
695,99	22,1
696,313	22,14
696,636	22,25
696,958	22,4
697,281	22,49
697,604	22,57
697,926	22,61
698,249	22,65
698,571	22,68
698,893	22,66
699,216	22,65
699,538	22,62
699,86	22,61
700,182	22,64
700,504	22,7
700,827	22,68
701,149	22,67
701,471	22,72
701,793	22,74
702,114	22,68
702,436	22,62
702,758	22,49
703,08	22,42
703,401	22,31
703,723	22,18
704,045	22,05
704,366	21,91
704,688	21,88
705,009	21,74
705,331	21,7
705,652	21,68
705,973	21,7
706,294	21,67
706,616	21,73
706,937	21,76
707,258	21,76
707,579	21,85
707,9	21,9
708,221	21,91
708,542	21,9
708,863	21,92
709,183	22,02
709,504	22,17
709,825	22,17
710,145	22,18
710,466	22,19
710,787	22,27
711,107	22,36
711,427	22,32
711,748	22,43
712,068	22,53
712,388	22,65
712,709	22,77
713,029	22,88
713,349	22,86
713,669	22,84
713,989	22,81
714,309	22,83
714,629	22,86
714,949	22,92
715,269	22,94
715,589	23
715,908	23
716,228	22,87
716,548	22,88
716,867	22,89
717,187	22,91
717,506	22,94
717,826	22,91
718,145	22,97
718,465	23,02
718,784	23,04
719,103	23,01
719,422	22,95
719,741	22,99
720,061	23
720,38	23,16
720,699	23,39
721,018	23,49
721,336	23,56
721,655	23,55
721,974	23,65
722,293	23,7
722,612	23,78
722,93	23,91
723,249	24,01
723,567	24,12
723,886	24,19
724,204	24,21
724,523	24,32
724,841	24,43
725,159	24,48
725,477	24,53
725,796	24,64
726,114	24,81
726,432	24,93
726,75	25,09
727,068	25,14
727,386	25,15
727,704	25,25
728,022	25,37
728,339	25,54
728,657	25,64
728,975	25,72
729,292	25,77
729,61	25,85
729,928	25,92
730,245	26,03
730,562	26,23
730,88	26,46
731,197	26,69
731,514	26,77
731,832	26,81
732,149	26,86
732,466	26,9
732,783	26,87
733,1	26,94
733,417	27,06
733,734	27,1
734,051	27,15
734,368	27,15
734,684	27,19
735,001	27,27
735,318	27,36
735,634	27,41
735,951	27,47
736,268	27,62
736,584	27,75
736,9	27,72
737,217	27,66
737,533	27,64
737,849	27,57
738,166	27,65
738,482	27,81
738,798	28
739,114	28,25
739,43	28,51
739,746	28,67
740,062	28,74
740,378	28,91
740,693	29,05
741,009	29,24
741,325	29,42
741,641	29,38
741,956	29,39
742,272	29,58
742,587	29,8
742,903	29,86
743,218	29,94
743,533	30,22
743,849	30,43
744,164	30,49
744,479	30,55
744,794	30,7
745,109	30,82
745,424	30,93
745,739	30,94
746,054	30,93
746,369	30,9
746,684	31,03
746,999	31,07
747,313	31,16
747,628	31,19
747,943	31,16
748,257	31,32
748,572	31,47
748,886	31,54
749,201	31,57
749,515	31,55
749,829	31,65
750,144	31,73
750,458	31,7
750,772	31,82
751,086	32,05
751,4	32,1
751,714	32,08
752,028	31,98
752,342	32,01
752,656	32,01
752,97	32,15
753,284	32,16
753,597	32,28
753,911	32,28
754,225	32,33
754,538	32,36
754,852	32,4
755,165	32,4
755,478	32,51
755,792	32,64
756,105	32,77
756,418	32,79
756,731	32,78
757,045	32,8
757,358	32,8
757,671	32,77
757,984	32,84
758,297	32,93
758,609	33,13
758,922	33,16
759,235	33,17
759,548	33,09
759,86	32,96
760,173	32,81
760,486	32,81
760,798	32,76
761,111	32,73
761,423	32,59
761,735	32,47
762,048	32,45
762,36	32,38
762,672	32,42
762,984	32,41
763,296	32,44
763,608	32,55
763,92	32,62
764,232	32,67
764,544	32,72
764,856	32,86
765,168	32,83
765,48	32,87
765,791	32,98
766,103	33,07
766,414	33,33
766,726	33,64
767,037	33,9
767,349	34,16
767,66	34,43
767,972	34,8
768,283	35,26
768,594	35,34
768,905	35,62
769,216	35,9
769,527	36,32
769,838	36,62
770,149	36,9
770,46	37,09
770,771	37,36
771,082	37,46
771,393	37,53
771,703	37,82
772,014	38,03
772,324	38,05
772,635	38,21
772,945	38,2
773,256	38,15
773,566	38,13
773,877	38,1
774,187	38,25
774,497	38,38
774,807	38,58
775,117	38,93
775,427	39,06
775,737	39,16
776,047	39,26
776,357	39,31
776,667	39,14
776,977	39,08
777,287	38,97
777,596	38,97
777,906	39,13
778,216	39,29
778,525	39,6
778,835	40,01
779,144	40,53
779,453	40,92
779,763	41,13
780,072	41,14
780,381	41,51
780,69	41,7
781	41,86
781,309	41,73
781,618	41,86
781,927	41,95
782,235	42
782,544	42,23
782,853	42,73
783,162	43,19
783,471	43,39
783,779	43,52
784,088	43,65
784,396	43,62
784,705	43,55
785,013	43,34
785,322	43,23
785,63	42,87
785,938	42,47
786,246	42,2
786,554	42,34
786,863	42,09
787,171	41,88
787,479	41,91
787,787	42,14
788,094	42,21
788,402	42,14
788,71	42,33
789,018	42,2
789,326	41,74
789,633	41,62
789,941	41,74
790,248	41,94
790,556	42,13
790,863	42,23
791,171	42,22
791,478	42,33
791,785	42,51
792,092	42,61
792,399	42,79
792,707	43,05
793,014	42,98
793,321	43,18
793,628	43,53
793,934	43,62
794,241	43,63
794,548	43,49
794,855	43,57
795,161	43,51
795,468	43,36
795,775	43,42
796,081	43,53
796,388	43,65
796,694	43,58
797	43,33
797,307	43,25
797,613	43,34
797,919	43,52
798,225	43,53
798,531	43,59
798,837	43,61
799,143	43,67
799,449	43,98
799,755	44,15
800,061	44,18
800,367	44,23
800,672	44,26
800,978	44,55
801,284	44,89
801,589	44,97
801,895	45,09
802,2	45,25
802,506	45,27
802,811	45,13
803,116	45,02
803,421	45,38
803,727	45,53
804,032	45,63
804,337	45,51
804,642	45,54
804,947	45,7
805,252	45,8
805,556	46,09
805,861	46,24
806,166	46,27
806,471	46,17
806,775	46,43
807,08	46,63
807,384	46,65
807,689	46,61
807,993	46,82
808,298	47,28
808,602	47,6
808,906	47,79
809,211	47,75
809,515	48,1
809,819	48,31
810,123	48,55
810,427	48,71
810,731	48,86
811,035	48,92
811,338	48,79
811,642	48,94
811,946	48,64
812,25	48,59
812,553	48,63
812,857	48,99
813,16	48,91
813,464	48,96
813,767	48,97
814,07	48,83
814,374	48,54
814,677	48,26
814,98	48,22
815,283	48,14
815,586	48,22
815,889	47,99
816,192	47,66
816,495	47,31
816,798	46,98
817,101	46,73
817,404	46,49
817,706	46,23
818,009	45,63
818,312	45,06
818,614	43,68
818,917	41,75
819,219	39,35
819,521	37,62
819,824	35,8
820,126	34,63
820,428	33,84
820,73	33,31
821,032	32,9
821,334	32,61
821,636	32,29
821,938	32,13
822,24	32,07
822,542	32,1
822,844	32,17
823,145	32,16
823,447	32,14
823,749	32
824,05	31,83
824,352	31,7
824,653	31,67
824,955	31,71
825,256	31,82
825,557	32,05
825,858	32,28
826,16	32,75
826,461	33,17
826,762	33,66
827,063	34,14
827,364	34,65
827,665	35,15
827,965	35,78
828,266	36,26
828,567	36,52
828,868	36,59
829,168	36,6
829,469	36,61
829,769	36,57
830,07	36,88
830,37	37,35
830,67	37,84
830,971	38,22
831,271	38,74
831,571	39,19
831,871	39,52
832,171	39,55
832,471	39,66
832,771	39,94
833,071	40,06
833,371	40,1
833,671	40,18
833,971	40,12
834,27	40,11
834,57	40,32
834,869	40,66
835,169	41,04
835,468	41,31
835,768	41,79
836,067	42,13
836,367	42,5
836,666	43,06
836,965	43,75
837,264	44,61
837,563	45,33
837,862	46,25
838,161	47,09
838,46	47,96
838,759	48,82
839,058	49,4
839,356	50,15
839,655	50,8
839,954	51,34
840,252	51,97
840,551	52,61
840,849	52,94
841,148	53,48
841,446	53,53
841,744	53,48
842,043	53,18
842,341	53,51
842,639	54,06
842,937	54,43
843,235	54,54
843,533	54,23
843,831	54,65
844,129	55,18
844,427	56,32
844,724	57,47
845,022	58,22
845,32	59,2
845,617	59,92
845,915	61,18
846,212	62,16
846,51	62,85
846,807	63,37
847,104	64,66
847,402	65,5
847,699	66,47
847,996	67,49
848,293	68,93
848,59	69,83
848,887	69,45
849,184	69,16
849,481	69,37
849,778	69,83
850,074	69,89
850,371	69,95
850,668	69,77
850,964	70,13
851,261	71,38
851,557	72,22
851,854	72,65
852,15	72,8
852,446	72,84
852,743	72,47
853,039	72,59
853,335	71,79
853,631	70,74
853,927	70,72
854,223	71,23
854,519	71,3
854,815	71,48
855,111	72
855,406	72,44
855,702	72,92
855,998	73,34
856,293	73,93
856,589	74,94
856,884	75,52
857,18	75,9
857,475	75,89
857,77	75,69
858,066	75,99
858,361	76,25
858,656	76,65
858,951	77,6
859,246	78,52
859,541	79,01
859,836	79,81
860,131	79,46
860,426	78,58
860,72	78,12
861,015	77,38
861,31	77,07
861,604	77,15
861,899	77,32
862,193	77,27
862,487	77,07
862,782	76
863,076	76,28
863,37	75,9
863,664	75,34
863,959	75,59
864,253	75,37
864,547	74,94
864,841	74,07
865,135	73,62
865,428	72,87
865,722	72,62
866,016	72,27
866,31	72,71
866,603	73,43
866,897	74,26
867,19	74,68
867,484	74,97
867,777	75,42
868,07	75,63
868,364	75,2
868,657	74,48
868,95	74,79
869,243	74,73
869,536	75,34
869,829	75,64
870,122	75,06
870,415	74,59
870,708	74,43
871	74,78
871,293	75,21
871,586	75,38
871,878	75,7
872,171	76,19
872,463	76,19
872,756	75,74
873,048	74,78
873,341	74,89
873,633	75,01
873,925	74,37
874,217	73,7
874,509	73,98
874,801	74,83
875,093	75,07
875,385	74,61
875,677	73,68
875,969	73,45
