Data from zc74042_5_Reflection_00001.txt Node
Date: Thu Mar 12 14:53:18 ART 2020
User: Ana
Spectrometer: USB2E3644
Trigger mode: 4
Integration Time (sec): 5,000000E-2
Scans to average: 10
Electric dark correction enabled: true
Nonlinearity correction enabled: false
Boxcar width: 10
XAxis mode: Wavelengths
Number of Pixels in Spectrum: 2048
>>>>>Begin Spectral Data<<<<<
178,315	117,09
178,696	108,68
179,076	121
179,457	135,17
179,838	126,26
180,218	129,74
180,599	289,74
180,979	96,43
181,36	66,67
181,74	83,53
182,121	95,14
182,501	112,87
182,881	99,78
183,262	96,1
183,642	101,71
184,022	108,65
184,402	113,58
184,783	116,16
185,163	118,93
185,543	121,15
185,923	123,45
186,303	123,45
186,683	120,96
187,063	120,78
187,443	118,79
187,823	114,75
188,203	114,89
188,583	117,7
188,963	121,45
189,343	125,89
189,723	127,43
190,102	129,47
190,482	134,54
190,862	138,36
191,242	140,37
191,621	138,66
192,001	135,89
192,38	133,16
192,76	132,55
193,14	131,68
193,519	129,86
193,898	127,51
194,278	126,16
194,657	125,71
195,037	126,1
195,416	128,36
195,795	129,59
196,175	128,72
196,554	126,26
196,933	122,52
197,312	121,08
197,692	119,45
198,071	117,44
198,45	115,32
198,829	114,48
199,208	113,26
199,587	112,03
199,966	111,54
200,345	109,81
200,724	108,27
201,103	107,52
201,482	107,75
201,86	108,1
202,239	108,1
202,618	108,1
202,997	108,02
203,375	106,53
203,754	106,22
204,133	106,86
204,511	107,21
204,89	106,16
205,269	104,58
205,647	105,1
206,026	105,74
206,404	106,58
206,782	106,97
207,161	107,93
207,539	109
207,918	111,09
208,296	113,23
208,674	115,01
209,052	116
209,431	115,71
209,809	115,6
210,187	115,77
210,565	116,28
210,943	117,17
211,321	119,3
211,699	120,57
212,077	120,7
212,455	122,12
212,833	124,85
213,211	127
213,589	127,82
213,967	128,65
214,345	128,18
214,722	127,18
215,1	127,5
215,478	127,96
215,855	127,58
216,233	128,44
216,611	130,26
216,988	132,34
217,366	133,33
217,743	132,85
218,121	133,29
218,498	134,52
218,876	135,22
219,253	134,2
219,631	134,07
220,008	134,35
220,385	132,96
220,762	130,55
221,14	131,97
221,517	132,6
221,894	130,84
222,271	131,89
222,648	135,56
223,025	138,11
223,402	140,16
223,78	142,45
224,157	144,03
224,533	142,74
224,91	142,41
225,287	144,44
225,664	148,73
226,041	153,26
226,418	156,48
226,795	157,45
227,171	159,73
227,548	162,66
227,925	165,89
228,301	170,18
228,678	174,48
229,055	172,99
229,431	174,1
229,808	178,78
230,184	181,99
230,561	183,18
230,937	185
231,313	186,84
231,69	188,03
232,066	185,73
232,442	187,01
232,819	189,83
233,195	189,43
233,571	191,79
233,947	193,56
234,323	193,55
234,699	198,25
235,075	201,27
235,451	203,97
235,827	207,49
236,203	211,09
236,579	216,83
236,955	228,87
237,331	242,78
237,707	262,1
238,083	294,91
238,459	352,22
238,834	449,67
239,21	641,71
239,586	1022,92
239,961	2077,58
240,337	6370,37
240,713	-12818,52
241,088	-3605,21
241,464	-2633,33
241,839	-1980,79
242,215	-1198,65
242,59	-706,24
242,965	-395,38
243,341	-238,18
243,716	-162,96
244,091	-130,42
244,467	-113,63
244,842	-102,99
245,217	-94,92
245,592	-90,13
245,967	-89,91
246,343	-89,75
246,718	-89,71
247,093	-92,39
247,468	-93,83
247,843	-93,15
248,218	-89,19
248,593	-82,96
248,967	-76,94
249,342	-73,28
249,717	-71,15
250,092	-69,98
250,467	-70,29
250,841	-74,23
251,216	-83,09
251,591	-97,49
251,965	-110,1
252,34	-119,57
252,714	-130,99
253,089	-139,09
253,463	-146,12
253,838	-144,71
254,212	-138,65
254,587	-129,54
254,961	-114,3
255,335	-99,4
255,71	-83,49
256,084	-66,8
256,458	-55,35
256,832	-47,92
257,206	-43,66
257,581	-41,45
257,955	-39,95
258,329	-38,62
258,703	-36,94
259,077	-35,76
259,451	-34,61
259,825	-34,31
260,199	-34,49
260,572	-34,1
260,946	-33,83
261,32	-33,25
261,694	-32,48
262,068	-32,25
262,441	-32,07
262,815	-32,12
263,189	-31,79
263,562	-32,54
263,936	-35,33
264,309	-38,84
264,683	-42,34
265,056	-44,3
265,43	-45
265,803	-44,98
266,176	-44,5
266,55	-44,33
266,923	-43,47
267,296	-42,2
267,67	-40,29
268,043	-38,94
268,416	-37,15
268,789	-35,58
269,162	-33,99
269,535	-32,45
269,908	-31,19
270,281	-30,44
270,654	-30,16
271,027	-30,75
271,4	-30,85
271,773	-30,35
272,146	-29,93
272,519	-29,65
272,891	-29,61
273,264	-29,61
273,637	-29,39
274,01	-29,23
274,382	-29,61
274,755	-30,07
275,127	-30,58
275,5	-30,86
275,872	-30,62
276,245	-30,6
276,617	-30,88
276,99	-30,95
277,362	-31,35
277,734	-31,41
278,107	-31,05
278,479	-30,68
278,851	-30,1
279,223	-29,84
279,596	-29,58
279,968	-29,61
280,34	-29,21
280,712	-28,28
281,084	-27,15
281,456	-26,12
281,828	-24,72
282,2	-23,16
282,572	-22,01
282,944	-21,14
283,315	-20,73
283,687	-20,23
284,059	-19,93
284,431	-19,61
284,802	-19,19
285,174	-18,82
285,546	-18,65
285,917	-18,38
286,289	-18,08
286,66	-17,8
287,032	-17,36
287,403	-17,13
287,775	-16,96
288,146	-17,19
288,518	-17,58
288,889	-17,7
289,26	-17,91
289,632	-18,49
290,003	-19,04
290,374	-19,24
290,745	-19,26
291,116	-19,14
291,487	-19,19
291,858	-19,23
292,229	-19,26
292,6	-19,01
292,971	-18,3
293,342	-17,43
293,713	-16,66
294,084	-15,92
294,455	-15,11
294,826	-14,76
295,196	-14,72
295,567	-14,83
295,938	-14,52
296,308	-14,09
296,679	-13,74
297,05	-13,34
297,42	-12,86
297,791	-12,41
298,161	-12,22
298,532	-12,03
298,902	-11,94
299,272	-11,84
299,643	-11,6
300,013	-11,15
300,383	-10,91
300,754	-11,03
301,124	-11,32
301,494	-11,78
301,864	-12,3
302,234	-12,74
302,604	-12,83
302,974	-12,64
303,344	-12,18
303,714	-11,99
304,084	-11,75
304,454	-11,7
304,824	-11,77
305,194	-12
305,563	-12,15
305,933	-12,01
306,303	-11,67
306,673	-11,25
307,042	-10,79
307,412	-10,29
307,781	-9,83
308,151	-9,62
308,521	-9,58
308,89	-9,45
309,259	-9,37
309,629	-9,23
309,998	-9,22
310,368	-9,27
310,737	-9,24
311,106	-9,2
311,475	-9,13
311,845	-9,19
312,214	-9,2
312,583	-9,1
312,952	-9,04
313,321	-8,9
313,69	-8,65
314,059	-8,62
314,428	-8,71
314,797	-8,82
315,166	-9,12
315,535	-9,58
315,904	-9,98
316,272	-10,2
316,641	-10,36
317,01	-10,25
317,379	-10,09
317,747	-9,8
318,116	-9,42
318,484	-9,25
318,853	-9,26
319,221	-9,31
319,59	-9,44
319,958	-9,43
320,327	-9,39
320,695	-9,29
321,063	-9,15
321,432	-9,01
321,8	-8,83
322,168	-8,66
322,536	-8,75
322,905	-8,52
323,273	-8,24
323,641	-8,02
324,009	-7,81
324,377	-7,63
324,745	-7,58
325,113	-7,47
325,481	-7,36
325,849	-7,42
326,216	-7,38
326,584	-7,19
326,952	-6,98
327,32	-6,68
327,687	-6,45
328,055	-6,26
328,423	-6,08
328,79	-6,07
329,158	-6,18
329,525	-6,29
329,893	-6,29
330,26	-6,09
330,628	-5,98
330,995	-5,83
331,362	-5,65
331,73	-5,53
332,097	-5,41
332,464	-5,22
332,831	-5,05
333,199	-4,94
333,566	-4,7
333,933	-4,46
334,3	-4,35
334,667	-4,33
335,034	-4,27
335,401	-4,3
335,768	-4,35
336,135	-4,36
336,502	-4,22
336,868	-4,07
337,235	-3,97
337,602	-3,87
337,969	-3,74
338,335	-3,65
338,702	-3,57
339,069	-3,55
339,435	-3,5
339,802	-3,33
340,168	-3,27
340,535	-3,23
340,901	-3,3
341,267	-3,38
341,634	-3,34
342	-3,26
342,366	-3,08
342,733	-3,03
343,099	-2,93
343,465	-2,84
343,831	-2,72
344,197	-2,68
344,563	-2,69
344,929	-2,65
345,295	-2,57
345,661	-2,52
346,027	-2,52
346,393	-2,58
346,759	-2,56
347,125	-2,47
347,491	-2,47
347,856	-2,43
348,222	-2,41
348,588	-2,27
348,953	-2,12
349,319	-2,17
349,684	-2,11
350,05	-2,06
350,415	-2
350,781	-1,94
351,146	-1,86
351,512	-1,81
351,877	-1,79
352,242	-1,73
352,608	-1,64
352,973	-1,56
353,338	-1,46
353,703	-1,35
354,068	-1,29
354,433	-1,22
354,798	-1,19
355,164	-1,15
355,528	-1,11
355,893	-1,07
356,258	-1,01
356,623	-0,9
356,988	-0,74
357,353	-0,7
357,718	-0,7
358,082	-0,64
358,447	-0,58
358,812	-0,48
359,176	-0,41
359,541	-0,31
359,905	-0,23
360,27	-0,17
360,634	-0,15
360,999	-0,11
361,363	-0,09
361,728	-0,05
362,092	-0,02
362,456	0,02
362,821	0,1
363,185	0,2
363,549	0,32
363,913	0,36
364,277	0,36
364,641	0,34
365,005	0,42
365,369	0,51
365,733	0,6
366,097	0,67
366,461	0,69
366,825	0,74
367,189	0,76
367,553	0,81
367,916	0,92
368,28	1,02
368,644	1,1
369,007	1,21
369,371	1,36
369,734	1,51
370,098	1,64
370,461	1,69
370,825	1,69
371,188	1,69
371,552	1,74
371,915	1,81
372,278	1,95
372,642	2,02
373,005	2,1
373,368	2,22
373,731	2,32
374,094	2,43
374,457	2,49
374,82	2,62
375,183	2,71
375,546	2,76
375,909	2,8
376,272	2,87
376,635	2,93
376,998	2,93
377,361	2,96
377,723	3
378,086	3,05
378,449	3,14
378,811	3,21
379,174	3,27
379,537	3,33
379,899	3,36
380,262	3,4
380,624	3,43
380,987	3,42
381,349	3,43
381,711	3,48
382,074	3,57
382,436	3,63
382,798	3,72
383,16	3,77
383,522	3,8
383,884	3,8
384,247	3,83
384,609	3,9
384,971	3,96
385,333	3,95
385,695	3,98
386,056	3,97
386,418	3,97
386,78	3,97
387,142	3,97
387,504	3,99
387,865	4,04
388,227	4,04
388,589	4,07
388,95	4,1
389,312	4,1
389,673	4,1
390,035	4,09
390,396	4,07
390,758	4,08
391,119	4,11
391,48	4,16
391,842	4,17
392,203	4,17
392,564	4,16
392,925	4,19
393,286	4,22
393,648	4,26
394,009	4,3
394,37	4,32
394,731	4,36
395,092	4,36
395,452	4,37
395,813	4,39
396,174	4,41
396,535	4,44
396,896	4,48
397,257	4,49
397,617	4,52
397,978	4,54
398,338	4,54
398,699	4,56
399,06	4,6
399,42	4,62
399,781	4,62
400,141	4,64
400,501	4,67
400,862	4,7
401,222	4,71
401,582	4,72
401,943	4,74
402,303	4,75
402,663	4,75
403,023	4,77
403,383	4,79
403,743	4,81
404,103	4,82
404,463	4,84
404,823	4,89
405,183	4,91
405,543	4,95
405,903	4,97
406,262	4,97
406,622	4,93
406,982	4,92
407,342	4,95
407,701	4,96
408,061	4,98
408,42	4,99
408,78	5,02
409,139	5,04
409,499	5,04
409,858	5,05
410,217	5,1
410,577	5,1
410,936	5,08
411,295	5,05
411,655	5,02
412,014	4,97
412,373	4,9
412,732	4,86
413,091	4,82
413,45	4,78
413,809	4,73
414,168	4,67
414,527	4,63
414,886	4,57
415,245	4,54
415,603	4,5
415,962	4,45
416,321	4,41
416,679	4,37
417,038	4,32
417,397	4,29
417,755	4,23
418,114	4,2
418,472	4,19
418,831	4,19
419,189	4,19
419,547	4,19
419,906	4,19
420,264	4,15
420,622	4,13
420,981	4,13
421,339	4,14
421,697	4,15
422,055	4,16
422,413	4,18
422,771	4,2
423,129	4,23
423,487	4,25
423,845	4,25
424,203	4,28
424,56	4,31
424,918	4,34
425,276	4,39
425,634	4,43
425,991	4,45
426,349	4,48
426,707	4,51
427,064	4,54
427,422	4,59
427,779	4,66
428,137	4,72
428,494	4,78
428,851	4,81
429,209	4,82
429,566	4,82
429,923	4,83
430,28	4,81
430,637	4,79
430,995	4,78
431,352	4,8
431,709	4,8
432,066	4,79
432,423	4,8
432,78	4,8
433,137	4,79
433,493	4,78
433,85	4,79
434,207	4,78
434,564	4,76
434,92	4,74
435,277	4,72
435,634	4,7
435,99	4,67
436,347	4,66
436,703	4,66
437,06	4,65
437,416	4,64
437,773	4,64
438,129	4,63
438,485	4,64
438,841	4,63
439,198	4,62
439,554	4,62
439,91	4,62
440,266	4,62
440,622	4,62
440,978	4,62
441,334	4,59
441,69	4,57
442,046	4,55
442,402	4,52
442,758	4,52
443,113	4,52
443,469	4,51
443,825	4,51
444,181	4,53
444,536	4,53
444,892	4,54
445,247	4,56
445,603	4,58
445,958	4,59
446,314	4,6
446,669	4,62
447,025	4,63
447,38	4,62
447,735	4,64
448,09	4,65
448,446	4,67
448,801	4,7
449,156	4,73
449,511	4,77
449,866	4,82
450,221	4,86
450,576	4,9
450,931	4,94
451,286	4,96
451,641	5
451,995	5,04
452,35	5,08
452,705	5,1
453,06	5,11
453,414	5,15
453,769	5,17
454,123	5,18
454,478	5,19
454,832	5,2
455,187	5,17
455,541	5,13
455,896	5,11
456,25	5,08
456,604	5,06
456,958	5,03
457,313	5,02
457,667	5,01
458,021	5,02
458,375	5,03
458,729	5,06
459,083	5,06
459,437	5,05
459,791	5,04
460,145	5,04
460,499	5,04
460,852	5,02
461,206	5,02
461,56	5,01
461,914	5,02
462,267	5,02
462,621	5,03
462,974	5,06
463,328	5,08
463,681	5,1
464,035	5,14
464,388	5,17
464,742	5,18
465,095	5,2
465,448	5,2
465,801	5,18
466,155	5,17
466,508	5,17
466,861	5,17
467,214	5,18
467,567	5,19
467,92	5,21
468,273	5,21
468,626	5,22
468,979	5,22
469,332	5,22
469,684	5,23
470,037	5,26
470,39	5,29
470,743	5,31
471,095	5,32
471,448	5,32
471,8	5,35
472,153	5,38
472,505	5,39
472,858	5,41
473,21	5,43
473,562	5,44
473,915	5,45
474,267	5,47
474,619	5,47
474,971	5,47
475,324	5,46
475,676	5,47
476,028	5,49
476,38	5,49
476,732	5,49
477,084	5,49
477,436	5,47
477,787	5,46
478,139	5,45
478,491	5,45
478,843	5,44
479,195	5,42
479,546	5,36
479,898	5,34
480,249	5,29
480,601	5,24
480,952	5,22
481,304	5,2
481,655	5,18
482,007	5,18
482,358	5,17
482,709	5,17
483,061	5,15
483,412	5,14
483,763	5,14
484,114	5,14
484,465	5,14
484,816	5,14
485,167	5,14
485,518	5,15
485,869	5,15
486,22	5,16
486,571	5,17
486,922	5,19
487,272	5,2
487,623	5,23
487,974	5,26
488,324	5,29
488,675	5,31
489,025	5,32
489,376	5,34
489,726	5,35
490,077	5,37
490,427	5,39
490,778	5,42
491,128	5,45
491,478	5,47
491,828	5,51
492,179	5,54
492,529	5,57
492,879	5,59
493,229	5,62
493,579	5,63
493,929	5,65
494,279	5,67
494,629	5,69
494,979	5,71
495,328	5,75
495,678	5,78
496,028	5,84
496,378	5,88
496,727	5,91
497,077	5,96
497,426	5,99
497,776	5,99
498,125	5,99
498,475	6
498,824	6,01
499,174	6,02
499,523	6,04
499,872	6,06
500,221	6,08
500,571	6,1
500,92	6,12
501,269	6,15
501,618	6,17
501,967	6,2
502,316	6,21
502,665	6,21
503,014	6,21
503,363	6,2
503,711	6,22
504,06	6,23
504,409	6,22
504,758	6,21
505,106	6,23
505,455	6,25
505,803	6,25
506,152	6,25
506,5	6,27
506,849	6,29
507,197	6,28
507,546	6,28
507,894	6,29
508,242	6,29
508,59	6,29
508,939	6,28
509,287	6,27
509,635	6,29
509,983	6,32
510,331	6,35
510,679	6,38
511,027	6,41
511,375	6,42
511,723	6,45
512,07	6,49
512,418	6,5
512,766	6,52
513,114	6,55
513,461	6,58
513,809	6,58
514,156	6,59
514,504	6,62
514,851	6,63
515,199	6,64
515,546	6,64
515,893	6,65
516,241	6,69
516,588	6,7
516,935	6,71
517,282	6,72
517,63	6,73
517,977	6,74
518,324	6,75
518,671	6,76
519,018	6,78
519,365	6,8
519,711	6,83
520,058	6,85
520,405	6,85
520,752	6,86
521,099	6,89
521,445	6,89
521,792	6,92
522,138	6,93
522,485	6,94
522,832	6,97
523,178	6,98
523,524	6,98
523,871	7,01
524,217	7,03
524,563	7,03
524,91	7,05
525,256	7,03
525,602	7,02
525,948	7,01
526,294	7,02
526,64	7,02
526,986	7,01
527,332	7,01
527,678	7,02
528,024	7,04
528,37	7,06
528,716	7,07
529,061	7,08
529,407	7,1
529,753	7,12
530,098	7,13
530,444	7,15
530,789	7,17
531,135	7,17
531,48	7,17
531,826	7,19
532,171	7,21
532,516	7,25
532,862	7,29
533,207	7,33
533,552	7,36
533,897	7,38
534,242	7,41
534,587	7,43
534,932	7,46
535,277	7,48
535,622	7,49
535,967	7,52
536,312	7,53
536,657	7,56
537,001	7,6
537,346	7,62
537,691	7,65
538,035	7,69
538,38	7,72
538,724	7,74
539,069	7,76
539,413	7,78
539,758	7,8
540,102	7,82
540,446	7,82
540,791	7,83
541,135	7,86
541,479	7,89
541,823	7,91
542,167	7,93
542,512	7,94
542,856	7,94
543,2	7,95
543,543	7,97
543,887	7,97
544,231	8
544,575	8,04
544,919	8,05
545,262	8,08
545,606	8,11
545,95	8,14
546,293	8,16
546,637	8,2
546,98	8,24
547,324	8,27
547,667	8,34
548,011	8,37
548,354	8,4
548,697	8,42
549,04	8,43
549,384	8,46
549,727	8,48
550,07	8,52
550,413	8,55
550,756	8,57
551,099	8,6
551,442	8,61
551,785	8,63
552,128	8,67
552,47	8,68
552,813	8,71
553,156	8,75
553,499	8,76
553,841	8,78
554,184	8,78
554,526	8,76
554,869	8,74
555,211	8,75
555,554	8,75
555,896	8,75
556,238	8,74
556,581	8,75
556,923	8,73
557,265	8,71
557,607	8,69
557,949	8,69
558,291	8,71
558,633	8,71
558,975	8,69
559,317	8,7
559,659	8,7
560,001	8,7
560,343	8,68
560,685	8,67
561,026	8,66
561,368	8,68
561,71	8,69
562,051	8,7
562,393	8,74
562,734	8,73
563,076	8,75
563,417	8,76
563,759	8,78
564,1	8,81
564,441	8,85
564,782	8,87
565,124	8,88
565,465	8,89
565,806	8,9
566,147	8,92
566,488	8,9
566,829	8,92
567,17	8,96
567,511	8,98
567,851	9,02
568,192	9,04
568,533	9,06
568,874	9,08
569,214	9,12
569,555	9,11
569,895	9,13
570,236	9,14
570,576	9,16
570,917	9,17
571,257	9,18
571,598	9,19
571,938	9,23
572,278	9,26
572,618	9,28
572,959	9,29
573,299	9,31
573,639	9,35
573,979	9,36
574,319	9,37
574,659	9,39
574,999	9,38
575,339	9,4
575,678	9,41
576,018	9,42
576,358	9,42
576,698	9,42
577,037	9,44
577,377	9,46
577,716	9,46
578,056	9,47
578,395	9,48
578,735	9,47
579,074	9,48
579,413	9,47
579,753	9,44
580,092	9,43
580,431	9,42
580,77	9,45
581,109	9,44
581,448	9,46
581,787	9,45
582,126	9,48
582,465	9,47
582,804	9,5
583,143	9,54
583,482	9,58
583,82	9,63
584,159	9,65
584,498	9,67
584,836	9,69
585,175	9,72
585,514	9,76
585,852	9,79
586,19	9,82
586,529	9,87
586,867	9,93
587,205	9,99
587,544	10,05
587,882	10,06
588,22	10,09
588,558	10,1
588,896	10,13
589,234	10,16
589,572	10,21
589,91	10,22
590,248	10,21
590,586	10,22
590,924	10,24
591,262	10,28
591,599	10,31
591,937	10,36
592,275	10,41
592,612	10,44
592,95	10,52
593,287	10,56
593,625	10,6
593,962	10,64
594,299	10,72
594,637	10,78
594,974	10,85
595,311	10,91
595,648	10,97
595,985	11
596,322	11,02
596,659	11,06
596,996	11,1
597,333	11,13
597,67	11,18
598,007	11,23
598,344	11,26
598,681	11,3
599,017	11,33
599,354	11,34
599,691	11,37
600,027	11,41
600,364	11,49
600,7	11,53
601,037	11,6
601,373	11,67
601,71	11,7
602,046	11,74
602,382	11,75
602,718	11,8
603,054	11,82
603,391	11,85
603,727	11,9
604,063	11,94
604,399	12,01
604,735	12,05
605,071	12,08
605,406	12,1
605,742	12,14
606,078	12,21
606,414	12,28
606,749	12,32
607,085	12,36
607,421	12,38
607,756	12,41
608,092	12,43
608,427	12,42
608,762	12,43
609,098	12,45
609,433	12,5
609,768	12,49
610,104	12,54
610,439	12,57
610,774	12,58
611,109	12,59
611,444	12,6
611,779	12,6
612,114	12,62
612,449	12,66
612,784	12,65
613,118	12,63
613,453	12,61
613,788	12,62
614,123	12,61
614,457	12,61
614,792	12,6
615,126	12,64
615,461	12,67
615,795	12,69
616,13	12,68
616,464	12,67
616,798	12,71
617,132	12,74
617,467	12,78
617,801	12,78
618,135	12,82
618,469	12,82
618,803	12,87
619,137	12,92
619,471	12,95
619,805	12,97
620,139	13,03
620,472	13,09
620,806	13,14
621,14	13,17
621,473	13,21
621,807	13,24
622,141	13,25
622,474	13,28
622,808	13,35
623,141	13,42
623,474	13,52
623,808	13,57
624,141	13,62
624,474	13,7
624,807	13,76
625,141	13,83
625,474	13,89
625,807	13,93
626,14	13,96
626,473	13,99
626,806	14,02
627,138	14,06
627,471	14,07
627,804	14,1
628,137	14,14
628,469	14,2
628,802	14,25
629,135	14,28
629,467	14,34
629,8	14,36
630,132	14,37
630,465	14,4
630,797	14,44
631,129	14,49
631,461	14,54
631,794	14,56
632,126	14,59
632,458	14,66
632,79	14,68
633,122	14,76
633,454	14,83
633,786	14,91
634,118	14,94
634,45	14,99
634,781	15,05
635,113	15,07
635,445	15,08
635,777	15,12
636,108	15,19
636,44	15,21
636,771	15,26
637,103	15,31
637,434	15,31
637,765	15,32
638,097	15,33
638,428	15,32
638,759	15,37
639,09	15,4
639,422	15,43
639,753	15,47
640,084	15,47
640,415	15,49
640,746	15,53
641,077	15,57
641,407	15,63
641,738	15,63
642,069	15,68
642,4	15,72
642,73	15,76
643,061	15,78
643,392	15,8
643,722	15,84
644,053	15,9
644,383	15,97
644,713	16,07
645,044	16,12
645,374	16,18
645,704	16,2
646,034	16,26
646,365	16,29
646,695	16,32
647,025	16,38
647,355	16,43
647,685	16,45
648,015	16,52
648,344	16,52
648,674	16,55
649,004	16,61
649,334	16,69
649,663	16,76
649,993	16,82
650,323	16,93
650,652	16,96
650,982	17
651,311	17
651,64	17,01
651,97	17,05
652,299	17,07
652,628	17,13
652,958	17,17
653,287	17,28
653,616	17,34
653,945	17,35
654,274	17,39
654,603	17,42
654,932	17,46
655,261	17,57
655,589	17,63
655,918	17,65
656,247	17,7
656,576	17,77
656,904	17,81
657,233	17,84
657,561	17,91
657,89	18
658,218	18,09
658,547	18,15
658,875	18,16
659,203	18,25
659,532	18,3
659,86	18,34
660,188	18,35
660,516	18,4
660,844	18,46
661,172	18,5
661,5	18,58
661,828	18,59
662,156	18,62
662,484	18,65
662,811	18,74
663,139	18,79
663,467	18,86
663,794	18,87
664,122	18,91
664,45	18,93
664,777	18,97
665,104	19,01
665,432	19,09
665,759	19,15
666,086	19,16
666,414	19,19
666,741	19,18
667,068	19,19
667,395	19,18
667,722	19,19
668,049	19,21
668,376	19,26
668,703	19,31
669,03	19,38
669,357	19,42
669,683	19,4
670,01	19,41
670,337	19,38
670,663	19,46
670,99	19,47
671,317	19,52
671,643	19,55
671,969	19,52
672,296	19,5
672,622	19,57
672,948	19,58
673,275	19,54
673,601	19,56
673,927	19,53
674,253	19,58
674,579	19,65
674,905	19,69
675,231	19,69
675,557	19,66
675,883	19,63
676,209	19,69
676,534	19,75
676,86	19,81
677,186	19,87
677,511	19,96
677,837	19,99
678,162	20,04
678,488	20,05
678,813	20,16
679,139	20,25
679,464	20,29
679,789	20,34
680,114	20,45
680,44	20,54
680,765	20,64
681,09	20,66
681,415	20,68
681,74	20,75
682,065	20,8
682,39	20,92
682,714	21
683,039	21,03
683,364	21,08
683,689	21,12
684,013	21,13
684,338	21,17
684,662	21,26
684,987	21,3
685,311	21,39
685,636	21,45
685,96	21,48
686,284	21,47
686,608	21,47
686,933	21,54
687,257	21,61
687,581	21,64
687,905	21,67
688,229	21,73
688,553	21,67
688,877	21,66
689,201	21,66
689,524	21,72
689,848	21,79
690,172	21,83
690,496	21,86
690,819	21,92
691,143	21,89
691,466	21,83
691,79	21,81
692,113	21,79
692,436	21,72
692,76	21,73
693,083	21,81
693,406	21,83
693,729	21,8
694,053	21,79
694,376	21,84
694,699	21,95
695,022	22,02
695,344	22,25
695,667	22,39
695,99	22,52
696,313	22,64
696,636	22,74
696,958	22,85
697,281	22,99
697,604	23,04
697,926	23,09
698,249	23,19
698,571	23,24
698,893	23,29
699,216	23,37
699,538	23,38
699,86	23,44
700,182	23,51
700,504	23,57
700,827	23,59
701,149	23,63
701,471	23,67
701,793	23,68
702,114	23,62
702,436	23,58
702,758	23,53
703,08	23,47
703,401	23,46
703,723	23,36
704,045	23,22
704,366	23,17
704,688	23,16
705,009	23,15
705,331	23,16
705,652	23,16
705,973	23,2
706,294	23,31
706,616	23,34
706,937	23,39
707,258	23,43
707,579	23,47
707,9	23,44
708,221	23,48
708,542	23,6
708,863	23,66
709,183	23,72
709,504	23,78
709,825	23,84
710,145	23,85
710,466	23,92
710,787	24,01
711,107	24,13
711,427	24,25
711,748	24,35
712,068	24,45
712,388	24,54
712,709	24,7
713,029	24,75
713,349	24,76
713,669	24,8
713,989	24,92
714,309	25,08
714,629	25,24
714,949	25,35
715,269	25,36
715,589	25,37
715,908	25,5
716,228	25,54
716,548	25,66
716,867	25,77
717,187	25,88
717,506	25,99
717,826	26
718,145	26
718,465	26,01
718,784	26,09
719,103	26,18
719,422	26,1
719,741	26,19
720,061	26,27
720,38	26,38
720,699	26,43
721,018	26,44
721,336	26,54
721,655	26,56
721,974	26,69
722,293	26,83
722,612	26,96
722,93	27,13
723,249	27,18
723,567	27,22
723,886	27,4
724,204	27,54
724,523	27,76
724,841	27,97
725,159	28,13
725,477	28,29
725,796	28,38
726,114	28,57
726,432	28,65
726,75	28,88
727,068	29,04
727,386	29,16
727,704	29,34
728,022	29,46
728,339	29,58
728,657	29,63
728,975	29,76
729,292	29,9
729,61	30,02
729,928	30,09
730,245	30,18
730,562	30,3
730,88	30,43
731,197	30,58
731,514	30,68
731,832	30,79
732,149	30,79
732,466	30,9
732,783	31
733,1	31,15
733,417	31,21
733,734	31,34
734,051	31,45
734,368	31,42
734,684	31,47
735,001	31,59
735,318	31,75
735,634	31,83
735,951	31,85
736,268	31,96
736,584	32,07
736,9	32,31
737,217	32,38
737,533	32,42
737,849	32,49
738,166	32,55
738,482	32,64
738,798	32,91
739,114	33,04
739,43	33,19
739,746	33,24
740,062	33,39
740,378	33,49
740,693	33,58
741,009	33,85
741,325	33,98
741,641	34,04
741,956	34,05
742,272	34,2
742,587	34,42
742,903	34,55
743,218	34,75
743,533	34,83
743,849	34,88
744,164	35
744,479	35,06
744,794	35,21
745,109	35,35
745,424	35,32
745,739	35,42
746,054	35,48
746,369	35,55
746,684	35,64
746,999	35,77
747,313	35,79
747,628	35,82
747,943	35,88
748,257	35,99
748,572	36,26
748,886	36,26
749,201	36,33
749,515	36,35
749,829	36,36
750,144	36,32
750,458	36,3
750,772	36,31
751,086	36,4
751,4	36,46
751,714	36,48
752,028	36,63
752,342	36,73
752,656	36,78
752,97	36,81
753,284	36,83
753,597	36,76
753,911	36,84
754,225	36,84
754,538	36,86
754,852	36,89
755,165	36,92
755,478	37,02
755,792	37,02
756,105	37,13
756,418	37,31
756,731	37,52
757,045	37,64
757,358	37,7
757,671	37,7
757,984	37,73
758,297	37,86
758,609	37,97
758,922	38,05
759,235	38,2
759,548	38,17
759,86	38,08
760,173	38,13
760,486	38,08
760,798	37,9
761,111	37,82
761,423	37,83
761,735	37,75
762,048	37,84
762,36	37,89
762,672	37,91
762,984	37,88
763,296	37,83
763,608	37,9
763,92	38,05
764,232	38,16
764,544	38,21
764,856	38,29
765,168	38,35
765,48	38,4
765,791	38,5
766,103	38,8
766,414	39,08
766,726	39,2
767,037	39,38
767,349	39,82
767,66	40,25
767,972	40,62
768,283	41,02
768,594	41,09
768,905	41,21
769,216	41,36
769,527	41,57
769,838	41,84
770,149	42,11
770,46	42,3
770,771	42,57
771,082	42,79
771,393	42,83
771,703	43,1
772,014	43,32
772,324	43,36
772,635	43,38
772,945	43,48
773,256	43,82
773,566	44,11
773,877	44,23
774,187	44,14
774,497	43,99
774,807	44,13
775,117	44,57
775,427	44,87
775,737	45
776,047	45,15
776,357	45,29
776,667	45,28
776,977	45,43
777,287	45,68
777,596	45,86
777,906	46,12
778,216	46,24
778,525	46,33
778,835	46,37
779,144	46,47
779,453	46,8
779,763	46,85
780,072	46,77
780,381	46,87
780,69	47,17
781	47,44
781,309	47,46
781,618	47,35
781,927	47,33
782,235	47,34
782,544	47,49
782,853	47,66
783,162	47,88
783,471	47,69
783,779	47,56
784,088	47,76
784,396	47,74
784,705	47,67
785,013	47,51
785,322	47,48
785,63	47,24
785,938	46,71
786,246	46,32
786,554	46,21
786,863	46,18
787,171	46,18
787,479	46,13
787,787	46,37
788,094	46,65
788,402	46,71
788,71	47,04
789,018	47,23
789,326	47,33
789,633	47,44
789,941	47,83
790,248	47,88
790,556	47,82
790,863	47,99
791,171	48,04
791,478	48,33
791,785	48,72
792,092	48,99
792,399	49,35
792,707	49,78
793,014	50,21
793,321	50,23
793,628	50,58
793,934	50,84
794,241	50,76
794,548	50,54
794,855	50,79
795,161	50,89
795,468	50,56
795,775	50,31
796,081	50,38
796,388	50,18
796,694	50,2
797	50,12
797,307	50,19
797,613	50,19
797,919	50,06
798,225	49,94
798,531	49,93
798,837	50,04
799,143	50,13
799,449	50,06
799,755	50,23
800,061	50,05
800,367	50,01
800,672	50,1
800,978	50,5
801,284	50,36
801,589	50,13
801,895	50,4
802,2	50,56
802,506	50,61
802,811	50,65
803,116	50,69
803,421	51
803,727	50,97
804,032	51,03
804,337	51,11
804,642	51,15
804,947	51,44
805,252	51,43
805,556	51,4
805,861	51,75
806,166	51,87
806,471	52,19
806,775	52,31
807,08	52,42
807,384	52,34
807,689	52,52
807,993	52,77
808,298	52,77
808,602	52,86
808,906	52,75
809,211	52,92
809,515	53,17
809,819	53,07
810,123	53,06
810,427	53,2
810,731	53,27
811,035	53,42
811,338	53,46
811,642	53,54
811,946	53,62
812,25	53,42
812,553	53,34
812,857	53,52
813,16	53,72
813,464	53,95
813,767	54,02
814,07	53,94
814,374	54,19
814,677	54,48
814,98	54,79
815,283	55,09
815,586	54,88
815,889	54,51
816,192	54,25
816,495	54,19
816,798	53,81
817,101	53,44
817,404	53,12
817,706	52,64
818,009	52,42
818,312	51,95
818,614	51
818,917	49,55
819,219	47,95
819,521	46,81
819,824	45,79
820,126	45
820,428	44,35
820,73	43,81
821,032	43,28
821,334	42,91
821,636	42,63
821,938	42,66
822,24	42,65
822,542	42,67
822,844	42,67
823,145	42,7
823,447	42,68
823,749	42,6
824,05	42,53
824,352	42,49
824,653	42,44
824,955	42,46
825,256	42,62
825,557	42,74
825,858	42,82
826,16	43
826,461	43,26
826,762	43,65
827,063	44,07
827,364	44,6
827,665	45,11
827,965	45,53
828,266	45,7
828,567	45,94
828,868	46,08
829,168	46,26
829,469	46,45
829,769	46,76
830,07	47,06
830,37	47,42
830,67	47,67
830,971	48,09
831,271	48,37
831,571	48,66
831,871	48,92
832,171	49,19
832,471	49,26
832,771	49,39
833,071	49,21
833,371	49,05
833,671	49,18
833,971	49,18
834,27	49,47
834,57	49,72
834,869	49,81
835,169	49,86
835,468	49,95
835,768	49,99
836,067	49,97
836,367	50,14
836,666	50,51
836,965	50,91
837,264	51,35
837,563	52,02
837,862	52,74
838,161	53,16
838,46	53,37
838,759	53,76
839,058	54,02
839,356	54,53
839,655	55,03
839,954	55,26
840,252	55,95
840,551	56,28
840,849	56,54
841,148	57,06
841,446	57,61
841,744	57,73
842,043	57,8
842,341	58,18
842,639	58,51
842,937	58,68
843,235	59,07
843,533	59,2
843,831	59,81
844,129	59,91
844,427	60,68
844,724	61,78
845,022	62,78
845,32	63,73
845,617	64,72
845,915	65,2
846,212	65,82
846,51	66,39
846,807	66,75
847,104	67,3
847,402	67,67
847,699	68,46
847,996	69,5
848,293	69,82
848,59	70,04
848,887	70,24
849,184	70,79
849,481	70,96
849,778	71,48
850,074	71,39
850,371	71,82
850,668	72,27
850,964	72,59
851,261	72,63
851,557	72,54
851,854	72,88
852,15	73,79
852,446	74,48
852,743	74,4
853,039	74,63
853,335	75,5
853,631	75,87
853,927	74,87
854,223	73,79
854,519	73,25
854,815	73,28
855,111	73,11
855,406	72,69
855,702	73,12
855,998	73,28
856,293	73,11
856,589	73,23
856,884	73,81
857,18	74,14
857,475	74,62
857,77	74,89
858,066	75,23
858,361	74,62
858,656	74,69
858,951	74,94
859,246	74,98
859,541	73,99
859,836	73,64
860,131	74,32
860,426	74,72
860,72	75,6
861,015	76,43
861,31	76,79
861,604	76,83
861,899	76,65
862,193	76,69
862,487	76,68
862,782	76,13
863,076	76,18
863,37	76,65
863,664	76,41
863,959	75,87
864,253	74,85
864,547	74,85
864,841	74,91
865,135	74,57
865,428	74,7
865,722	74,59
866,016	74,76
866,31	74,71
866,603	74,72
866,897	74,53
867,19	73,49
867,484	72,61
867,777	72,32
868,07	72,46
868,364	73,02
868,657	74
868,95	75,2
869,243	75,48
869,536	75,65
869,829	75,96
870,122	77,13
870,415	78,17
870,708	79,04
871	78,9
871,293	78,97
871,586	78,93
871,878	79,14
872,171	78,13
872,463	76,95
872,756	76,69
873,048	76,82
873,341	77,36
873,633	78,39
873,925	79,29
874,217	79,04
874,509	77,87
874,801	77,09
875,093	76,43
875,385	75,57
875,677	74,16
875,969	73,65
