Data from zc74010_4_Reflection_00002.txt Node
Date: Thu Mar 12 15:01:17 ART 2020
User: Ana
Spectrometer: USB2E3644
Trigger mode: 4
Integration Time (sec): 5,000000E-2
Scans to average: 10
Electric dark correction enabled: true
Nonlinearity correction enabled: false
Boxcar width: 10
XAxis mode: Wavelengths
Number of Pixels in Spectrum: 2048
>>>>>Begin Spectral Data<<<<<
178,315	109,33
178,696	118,22
179,076	122,65
179,457	112,55
179,838	122,38
180,218	179,26
180,599	794,44
180,979	45,16
181,36	323,61
181,74	177,16
182,121	134,58
182,501	114,36
182,881	110,61
183,262	106,12
183,642	105,3
184,022	105,01
184,402	102,8
184,783	102,94
185,163	104,28
185,543	106,9
185,923	107,99
186,303	111,41
186,683	112,41
187,063	112,86
187,443	113,76
187,823	113,89
188,203	113,64
188,583	113,31
188,963	110,92
189,343	109,34
189,723	109,99
190,102	113,66
190,482	118,17
190,862	119,17
191,242	119,41
191,621	119,03
192,001	119,72
192,38	121,52
192,76	121,27
193,14	120,98
193,519	120,04
193,898	118,87
194,278	117,78
194,657	118,24
195,037	117,5
195,416	113,24
195,795	111,15
196,175	109,83
196,554	108,08
196,933	107,75
197,312	107,66
197,692	107,52
198,071	107,43
198,45	107,63
198,829	108,46
199,208	109,32
199,587	109,09
199,966	108,77
200,345	108,04
200,724	107,86
201,103	108,36
201,482	109,48
201,86	111,01
202,239	110,37
202,618	109,72
202,997	110,72
203,375	113,2
203,754	115,08
204,133	117,36
204,511	118,99
204,89	119,76
205,269	119,9
205,647	118,91
206,026	117,1
206,404	115,8
206,782	114,88
207,161	114,2
207,539	114,09
207,918	115
208,296	116,3
208,674	117,34
209,052	118,63
209,431	120
209,809	120,49
210,187	121
210,565	121,41
210,943	121,14
211,321	121,47
211,699	122,71
212,077	123,3
212,455	123,08
212,833	123,64
213,211	124,39
213,589	125,83
213,967	126,61
214,345	126,38
214,722	126,44
215,1	126,31
215,478	126,37
215,855	126,3
216,233	126,49
216,611	127,71
216,988	127,45
217,366	125,55
217,743	125,41
218,121	127,14
218,498	128,72
218,876	128,4
219,253	126,19
219,631	124,01
220,008	122,57
220,385	122,03
220,762	120,99
221,14	119,31
221,517	117,3
221,894	116,54
222,271	115,9
222,648	115,98
223,025	115,96
223,402	115,67
223,78	114,91
224,157	114,65
224,533	114,09
224,91	114,88
225,287	117,08
225,664	117,62
226,041	116,74
226,418	116,58
226,795	117,78
227,171	119,23
227,548	120,81
227,925	121,42
228,301	122,85
228,678	124,81
229,055	127,1
229,431	129,74
229,808	132,33
230,184	134,47
230,561	136,28
230,937	138,24
231,313	141,28
231,69	144,17
232,066	146,49
232,442	147,5
232,819	147,03
233,195	145,23
233,571	145,09
233,947	147,26
234,323	148,69
234,699	149,36
235,075	151,05
235,451	152,7
235,827	154,97
236,203	156,75
236,579	159,32
236,955	163,82
237,331	171,75
237,707	181,55
238,083	193,42
238,459	208,39
238,834	234,46
239,21	275,76
239,586	330,42
239,961	391,39
240,337	461,09
240,713	525,69
241,088	601,91
241,464	694,19
241,839	817,22
242,215	1086,7
242,59	2554,76
242,965	-1567,29
243,341	-445,88
243,716	-241,81
244,091	-172,37
244,467	-141,43
244,842	-123,84
245,217	-112,47
245,592	-107,09
245,967	-106,93
246,343	-104,38
246,718	-102,38
247,093	-103,52
247,468	-105,47
247,843	-104,85
248,218	-100,4
248,593	-93,03
248,967	-85,42
249,342	-81,93
249,717	-80,1
250,092	-79,25
250,467	-80,26
250,841	-85,46
251,216	-97,74
251,591	-118,39
251,965	-142,64
252,34	-161,42
252,714	-180,68
253,089	-193,35
253,463	-202,29
253,838	-199,64
254,212	-193,54
254,587	-183,28
254,961	-162,83
255,335	-138,83
255,71	-114,3
256,084	-88,3
256,458	-69,42
256,832	-58,03
257,206	-51,51
257,581	-48,26
257,955	-46,14
258,329	-43,94
258,703	-41,43
259,077	-39,4
259,451	-37,41
259,825	-36,4
260,199	-36,17
260,572	-35,53
260,946	-35,71
261,32	-35,52
261,694	-35,03
262,068	-34,81
262,441	-34,25
262,815	-33,99
263,189	-33,48
263,562	-33,68
263,936	-35,85
264,309	-39,66
264,683	-44,19
265,056	-46,49
265,43	-47,37
265,803	-47,6
266,176	-47,35
266,55	-47,45
266,923	-47,15
267,296	-46,21
267,67	-44,17
268,043	-42,24
268,416	-39,82
268,789	-37,07
269,162	-34,5
269,535	-32,28
269,908	-30,5
270,281	-29,74
270,654	-29,78
271,027	-30,3
271,4	-30,8
271,773	-30,88
272,146	-30,78
272,519	-30,7
272,891	-30,81
273,264	-30,73
273,637	-30,29
274,01	-29,85
274,382	-30,09
274,755	-30,25
275,127	-30,51
275,5	-30,8
275,872	-30,89
276,245	-31,23
276,617	-32,02
276,99	-32,74
277,362	-33,79
277,734	-34,74
278,107	-34,7
278,479	-34,41
278,851	-34,18
279,223	-33,84
279,596	-33,38
279,968	-33,23
280,34	-32,56
280,712	-31,7
281,084	-30,3
281,456	-28,81
281,828	-27,37
282,2	-25,22
282,572	-23,43
282,944	-22,13
283,315	-21,33
283,687	-20,64
284,059	-20,19
284,431	-19,83
284,802	-19,24
285,174	-18,56
285,546	-17,88
285,917	-17,2
286,289	-16,61
286,66	-16,16
287,032	-15,64
287,403	-15,23
287,775	-14,96
288,146	-14,92
288,518	-14,89
288,889	-14,85
289,26	-14,99
289,632	-15,44
290,003	-15,99
290,374	-16,14
290,745	-16,15
291,116	-16,18
291,487	-16,3
291,858	-16,22
292,229	-15,79
292,6	-15,19
292,971	-14,41
293,342	-13,78
293,713	-13,16
294,084	-12,47
294,455	-11,61
294,826	-11,04
295,196	-10,79
295,567	-10,78
295,938	-10,52
296,308	-10,29
296,679	-10,07
297,05	-9,8
297,42	-9,38
297,791	-9,06
298,161	-9,09
298,532	-8,95
298,902	-8,72
299,272	-8,54
299,643	-8,4
300,013	-8,26
300,383	-8,31
300,754	-8,53
301,124	-8,7
301,494	-8,89
301,864	-9
302,234	-9,24
302,604	-9,29
302,974	-9,14
303,344	-8,74
303,714	-8,4
304,084	-8,03
304,454	-7,8
304,824	-7,62
305,194	-7,54
305,563	-7,27
305,933	-6,84
306,303	-6,46
306,673	-5,93
307,042	-5,25
307,412	-4,61
307,781	-3,95
308,151	-3,46
308,521	-3,04
308,89	-2,64
309,259	-2,5
309,629	-2,42
309,998	-2,28
310,368	-2,22
310,737	-2,11
311,106	-2,02
311,475	-1,95
311,845	-1,9
312,214	-1,62
312,583	-1,34
312,952	-1,21
313,321	-1,16
313,69	-0,97
314,059	-0,77
314,428	-0,72
314,797	-0,73
315,166	-0,83
315,535	-1,16
315,904	-1,51
316,272	-1,72
316,641	-1,9
317,01	-1,8
317,379	-1,61
317,747	-1,32
318,116	-0,96
318,484	-0,6
318,853	-0,36
319,221	-0,11
319,59	0,05
319,958	0,19
320,327	0,33
320,695	0,56
321,063	0,92
321,432	1,29
321,8	1,58
322,168	1,77
322,536	1,87
322,905	2,31
323,273	2,85
323,641	3,44
324,009	3,9
324,377	4,15
324,745	4,46
325,113	4,75
325,481	5
325,849	5,15
326,216	5,31
326,584	5,58
326,952	5,8
327,32	6,13
327,687	6,36
328,055	6,62
328,423	6,82
328,79	6,83
329,158	6,81
329,525	6,87
329,893	7,08
330,26	7,33
330,628	7,5
330,995	7,68
331,362	7,78
331,73	7,94
332,097	8,23
332,464	8,44
332,831	8,6
333,199	8,71
333,566	8,89
333,933	9,09
334,3	9,3
334,667	9,49
335,034	9,61
335,401	9,67
335,768	9,73
336,135	9,92
336,502	10,22
336,868	10,49
337,235	10,76
337,602	10,9
337,969	11,05
338,335	11,17
338,702	11,39
339,069	11,52
339,435	11,6
339,802	11,71
340,168	11,86
340,535	11,96
340,901	12
341,267	12,02
341,634	12,1
342	12,25
342,366	12,42
342,733	12,5
343,099	12,69
343,465	12,78
343,831	12,83
344,197	12,94
344,563	12,99
344,929	12,96
345,295	13,08
345,661	13,18
346,027	13,26
346,393	13,24
346,759	13,33
347,125	13,46
347,491	13,59
347,856	13,71
348,222	13,79
348,588	14
348,953	14,23
349,319	14,26
349,684	14,3
350,05	14,36
350,415	14,5
350,781	14,57
351,146	14,73
351,512	14,9
351,877	14,93
352,242	15,03
352,608	15,19
352,973	15,39
353,338	15,58
353,703	15,75
354,068	15,81
354,433	15,89
354,798	15,98
355,164	16,12
355,528	16,17
355,893	16,26
356,258	16,33
356,623	16,47
356,988	16,66
357,353	16,82
357,718	16,96
358,082	17,02
358,447	17,13
358,812	17,28
359,176	17,4
359,541	17,52
359,905	17,59
360,27	17,64
360,634	17,59
360,999	17,65
361,363	17,73
361,728	17,85
362,092	17,95
362,456	18,04
362,821	18,07
363,185	18,16
363,549	18,28
363,913	18,39
364,277	18,4
364,641	18,42
365,005	18,52
365,369	18,57
365,733	18,69
366,097	18,76
366,461	18,75
366,825	18,81
367,189	18,9
367,553	19,05
367,916	19,22
368,28	19,39
368,644	19,52
369,007	19,57
369,371	19,72
369,734	19,92
370,098	20,05
370,461	20,16
370,825	20,21
371,188	20,28
371,552	20,37
371,915	20,48
372,278	20,59
372,642	20,67
373,005	20,77
373,368	20,9
373,731	21,06
374,094	21,2
374,457	21,27
374,82	21,44
375,183	21,55
375,546	21,65
375,909	21,73
376,272	21,83
376,635	21,97
376,998	22,04
377,361	22,06
377,723	22,12
378,086	22,22
378,449	22,3
378,811	22,41
379,174	22,52
379,537	22,62
379,899	22,71
380,262	22,75
380,624	22,83
380,987	22,91
381,349	22,96
381,711	23,04
382,074	23,14
382,436	23,19
382,798	23,33
383,16	23,37
383,522	23,45
383,884	23,46
384,247	23,52
384,609	23,6
384,971	23,62
385,333	23,67
385,695	23,67
386,056	23,7
386,418	23,68
386,78	23,75
387,142	23,74
387,504	23,76
387,865	23,78
388,227	23,85
388,589	23,9
388,95	23,93
389,312	23,96
389,673	24,02
390,035	24,05
390,396	24,02
390,758	24,05
391,119	24,04
391,48	24,09
391,842	24,09
392,203	24,11
392,564	24,12
392,925	24,18
393,286	24,26
393,648	24,32
394,009	24,4
394,37	24,4
394,731	24,49
395,092	24,55
395,452	24,62
395,813	24,68
396,174	24,68
396,535	24,69
396,896	24,71
397,257	24,73
397,617	24,78
397,978	24,78
398,338	24,83
398,699	24,89
399,06	25
399,42	25,08
399,781	25,11
400,141	25,23
400,501	25,23
400,862	25,22
401,222	25,26
401,582	25,31
401,943	25,34
402,303	25,35
402,663	25,42
403,023	25,44
403,383	25,43
403,743	25,45
404,103	25,51
404,463	25,61
404,823	25,67
405,183	25,68
405,543	25,73
405,903	25,76
406,262	25,79
406,622	25,74
406,982	25,73
407,342	25,76
407,701	25,75
408,061	25,8
408,42	25,84
408,78	25,87
409,139	25,86
409,499	25,85
409,858	25,89
410,217	25,94
410,577	25,93
410,936	25,99
411,295	26,03
411,655	26,02
412,014	26,01
412,373	26,01
412,732	26
413,091	25,97
413,45	25,99
413,809	26,01
414,168	26,05
414,527	26,1
414,886	26,12
415,245	26,13
415,603	26,13
415,962	26,1
416,321	26,08
416,679	26,1
417,038	26,1
417,397	26,05
417,755	26,01
418,114	26,02
418,472	26
418,831	26,01
419,189	26,02
419,547	26,01
419,906	26,01
420,264	26
420,622	26,02
420,981	26
421,339	25,99
421,697	25,99
422,055	26
422,413	25,99
422,771	26
423,129	26,02
423,487	26,06
423,845	26,08
424,203	26,08
424,56	26,11
424,918	26,16
425,276	26,21
425,634	26,23
425,991	26,27
426,349	26,28
426,707	26,34
427,064	26,36
427,422	26,38
427,779	26,45
428,137	26,46
428,494	26,54
428,851	26,58
429,209	26,64
429,566	26,65
429,923	26,67
430,28	26,68
430,637	26,7
430,995	26,73
431,352	26,75
431,709	26,78
432,066	26,83
432,423	26,87
432,78	26,87
433,137	26,88
433,493	26,88
433,85	26,94
434,207	26,92
434,564	26,91
434,92	26,96
435,277	26,96
435,634	27
435,99	27,01
436,347	27,02
436,703	27,04
437,06	27,04
437,416	27,07
437,773	27,1
438,129	27,09
438,485	27,1
438,841	27,09
439,198	27,08
439,554	27,07
439,91	27,06
440,266	27,1
440,622	27,13
440,978	27,14
441,334	27,11
441,69	27,13
442,046	27,14
442,402	27,13
442,758	27,15
443,113	27,16
443,469	27,18
443,825	27,19
444,181	27,18
444,536	27,22
444,892	27,22
445,247	27,26
445,603	27,28
445,958	27,29
446,314	27,33
446,669	27,36
447,025	27,37
447,38	27,37
447,735	27,37
448,09	27,36
448,446	27,4
448,801	27,43
449,156	27,44
449,511	27,49
449,866	27,53
450,221	27,56
450,576	27,6
450,931	27,66
451,286	27,73
451,641	27,77
451,995	27,81
452,35	27,87
452,705	27,87
453,06	27,88
453,414	27,9
453,769	27,89
454,123	27,92
454,478	27,93
454,832	27,99
455,187	27,97
455,541	27,99
455,896	27,97
456,25	28
456,604	28,01
456,958	27,98
457,313	27,96
457,667	27,95
458,021	27,95
458,375	27,94
458,729	27,95
459,083	27,96
459,437	27,94
459,791	27,94
460,145	27,97
460,499	28,01
460,852	28,01
461,206	28,02
461,56	28,03
461,914	28,06
462,267	28,05
462,621	28,1
462,974	28,12
463,328	28,13
463,681	28,15
464,035	28,18
464,388	28,22
464,742	28,26
465,095	28,29
465,448	28,33
465,801	28,33
466,155	28,33
466,508	28,36
466,861	28,39
467,214	28,4
467,567	28,39
467,92	28,38
468,273	28,4
468,626	28,41
468,979	28,41
469,332	28,42
469,684	28,4
470,037	28,4
470,39	28,4
470,743	28,45
471,095	28,45
471,448	28,46
471,8	28,47
472,153	28,52
472,505	28,55
472,858	28,54
473,21	28,56
473,562	28,57
473,915	28,58
474,267	28,59
474,619	28,6
474,971	28,6
475,324	28,62
475,676	28,63
476,028	28,65
476,38	28,64
476,732	28,66
477,084	28,7
477,436	28,69
477,787	28,69
478,139	28,68
478,491	28,7
478,843	28,7
479,195	28,72
479,546	28,68
479,898	28,71
480,249	28,8
480,601	28,89
480,952	28,91
481,304	28,93
481,655	28,93
482,007	28,91
482,358	28,91
482,709	28,91
483,061	28,92
483,412	28,92
483,763	28,92
484,114	28,92
484,465	28,92
484,816	28,93
485,167	28,93
485,518	28,91
485,869	28,91
486,22	28,92
486,571	28,92
486,922	28,94
487,272	28,94
487,623	28,9
487,974	28,86
488,324	28,85
488,675	28,83
489,025	28,84
489,376	28,84
489,726	28,84
490,077	28,84
490,427	28,85
490,778	28,86
491,128	28,88
491,478	28,88
491,828	28,9
492,179	28,91
492,529	28,94
492,879	29
493,229	29,04
493,579	29,05
493,929	29,07
494,279	29,09
494,629	29,11
494,979	29,15
495,328	29,16
495,678	29,17
496,028	29,22
496,378	29,26
496,727	29,29
497,077	29,35
497,426	29,41
497,776	29,42
498,125	29,41
498,475	29,44
498,824	29,45
499,174	29,47
499,523	29,48
499,872	29,49
500,221	29,5
500,571	29,51
500,92	29,52
501,269	29,55
501,618	29,57
501,967	29,6
502,316	29,6
502,665	29,63
503,014	29,64
503,363	29,65
503,711	29,63
504,06	29,67
504,409	29,67
504,758	29,66
505,106	29,69
505,455	29,71
505,803	29,73
506,152	29,72
506,5	29,72
506,849	29,73
507,197	29,72
507,546	29,74
507,894	29,75
508,242	29,76
508,59	29,74
508,939	29,72
509,287	29,74
509,635	29,74
509,983	29,73
510,331	29,76
510,679	29,78
511,027	29,8
511,375	29,8
511,723	29,79
512,07	29,8
512,418	29,81
512,766	29,81
513,114	29,81
513,461	29,85
513,809	29,87
514,156	29,89
514,504	29,93
514,851	29,92
515,199	29,94
515,546	29,95
515,893	29,97
516,241	29,99
516,588	29,98
516,935	30
517,282	30
517,63	30
517,977	30
518,324	30,02
518,671	30,05
519,018	30,08
519,365	30,08
519,711	30,08
520,058	30,09
520,405	30,09
520,752	30,1
521,099	30,09
521,445	30,07
521,792	30,07
522,138	30,06
522,485	30,05
522,832	30,06
523,178	30,05
523,524	30,05
523,871	30,07
524,217	30,06
524,563	30,09
524,91	30,11
525,256	30,15
525,602	30,19
525,948	30,2
526,294	30,19
526,64	30,2
526,986	30,19
527,332	30,19
527,678	30,2
528,024	30,2
528,37	30,23
528,716	30,24
529,061	30,26
529,407	30,27
529,753	30,27
530,098	30,27
530,444	30,29
530,789	30,31
531,135	30,31
531,48	30,31
531,826	30,3
532,171	30,3
532,516	30,29
532,862	30,29
533,207	30,3
533,552	30,31
533,897	30,3
534,242	30,31
534,587	30,31
534,932	30,33
535,277	30,34
535,622	30,34
535,967	30,33
536,312	30,33
536,657	30,35
537,001	30,37
537,346	30,39
537,691	30,44
538,035	30,45
538,38	30,48
538,724	30,51
539,069	30,54
539,413	30,55
539,758	30,56
540,102	30,54
540,446	30,54
540,791	30,53
541,135	30,55
541,479	30,55
541,823	30,57
542,167	30,58
542,512	30,56
542,856	30,55
543,2	30,58
543,543	30,59
543,887	30,59
544,231	30,62
544,575	30,62
544,919	30,6
545,262	30,6
545,606	30,59
545,95	30,6
546,293	30,61
546,637	30,61
546,98	30,61
547,324	30,63
547,667	30,66
548,011	30,69
548,354	30,73
548,697	30,77
549,04	30,77
549,384	30,79
549,727	30,81
550,07	30,83
550,413	30,81
550,756	30,83
551,099	30,86
551,442	30,84
551,785	30,86
552,128	30,88
552,47	30,88
552,813	30,87
553,156	30,89
553,499	30,88
553,841	30,93
554,184	30,9
554,526	30,88
554,869	30,86
555,211	30,87
555,554	30,84
555,896	30,81
556,238	30,8
556,581	30,78
556,923	30,79
557,265	30,79
557,607	30,82
557,949	30,8
558,291	30,76
558,633	30,74
558,975	30,73
559,317	30,69
559,659	30,68
560,001	30,69
560,343	30,66
560,685	30,67
561,026	30,65
561,368	30,67
561,71	30,62
562,051	30,63
562,393	30,65
562,734	30,65
563,076	30,67
563,417	30,7
563,759	30,67
564,1	30,66
564,441	30,66
564,782	30,62
565,124	30,58
565,465	30,59
565,806	30,6
566,147	30,59
566,488	30,59
566,829	30,62
567,17	30,65
567,511	30,65
567,851	30,63
568,192	30,62
568,533	30,63
568,874	30,66
569,214	30,67
569,555	30,61
569,895	30,61
570,236	30,59
570,576	30,53
570,917	30,56
571,257	30,54
571,598	30,53
571,938	30,53
572,278	30,56
572,618	30,57
572,959	30,58
573,299	30,58
573,639	30,56
573,979	30,55
574,319	30,51
574,659	30,47
574,999	30,47
575,339	30,44
575,678	30,42
576,018	30,4
576,358	30,38
576,698	30,42
577,037	30,41
577,377	30,4
577,716	30,35
578,056	30,31
578,395	30,33
578,735	30,33
579,074	30,28
579,413	30,27
579,753	30,24
580,092	30,18
580,431	30,14
580,77	30,16
581,109	30,18
581,448	30,16
581,787	30,18
582,126	30,18
582,465	30,17
582,804	30,14
583,143	30,18
583,482	30,15
583,82	30,12
584,159	30,11
584,498	30,09
584,836	30,17
585,175	30,19
585,514	30,18
585,852	30,2
586,19	30,23
586,529	30,21
586,867	30,22
587,205	30,29
587,544	30,33
587,882	30,32
588,22	30,31
588,558	30,32
588,896	30,32
589,234	30,31
589,572	30,31
589,91	30,3
590,248	30,23
590,586	30,23
590,924	30,26
591,262	30,26
591,599	30,32
591,937	30,29
592,275	30,29
592,612	30,3
592,95	30,29
593,287	30,33
593,625	30,39
593,962	30,38
594,299	30,38
594,637	30,4
594,974	30,46
595,311	30,44
595,648	30,44
595,985	30,48
596,322	30,49
596,659	30,51
596,996	30,55
597,333	30,58
597,67	30,58
598,007	30,58
598,344	30,56
598,681	30,58
599,017	30,58
599,354	30,59
599,691	30,64
600,027	30,64
600,364	30,66
600,7	30,67
601,037	30,73
601,373	30,74
601,71	30,73
602,046	30,72
602,382	30,74
602,718	30,78
603,054	30,75
603,391	30,72
603,727	30,68
604,063	30,72
604,399	30,73
604,735	30,75
605,071	30,76
605,406	30,79
605,742	30,78
606,078	30,83
606,414	30,84
606,749	30,84
607,085	30,84
607,421	30,81
607,756	30,79
608,092	30,7
608,427	30,7
608,762	30,69
609,098	30,68
609,433	30,66
609,768	30,61
610,104	30,6
610,439	30,63
610,774	30,64
611,109	30,58
611,444	30,58
611,779	30,56
612,114	30,51
612,449	30,53
612,784	30,47
613,118	30,4
613,453	30,38
613,788	30,32
614,123	30,3
614,457	30,28
614,792	30,26
615,126	30,32
615,461	30,27
615,795	30,25
616,13	30,19
616,464	30,18
616,798	30,16
617,132	30,18
617,467	30,18
617,801	30,2
618,135	30,23
618,469	30,22
618,803	30,24
619,137	30,3
619,471	30,27
619,805	30,23
620,139	30,28
620,472	30,29
620,806	30,27
621,14	30,28
621,473	30,29
621,807	30,34
622,141	30,33
622,474	30,34
622,808	30,4
623,141	30,47
623,474	30,51
623,808	30,6
624,141	30,63
624,474	30,65
624,807	30,69
625,141	30,7
625,474	30,77
625,807	30,77
626,14	30,74
626,473	30,78
626,806	30,83
627,138	30,82
627,471	30,78
627,804	30,78
628,137	30,84
628,469	30,85
628,802	30,82
629,135	30,85
629,467	30,83
629,8	30,79
630,132	30,79
630,465	30,8
630,797	30,77
631,129	30,78
631,461	30,8
631,794	30,8
632,126	30,78
632,458	30,76
632,79	30,76
633,122	30,79
633,454	30,81
633,786	30,79
634,118	30,76
634,45	30,82
634,781	30,8
635,113	30,74
635,445	30,71
635,777	30,75
636,108	30,76
636,44	30,79
636,771	30,78
637,103	30,8
637,434	30,78
637,765	30,77
638,097	30,76
638,428	30,69
638,759	30,64
639,09	30,65
639,422	30,65
639,753	30,66
640,084	30,66
640,415	30,64
640,746	30,66
641,077	30,72
641,407	30,7
641,738	30,73
642,069	30,73
642,4	30,79
642,73	30,73
643,061	30,66
643,392	30,66
643,722	30,69
644,053	30,62
644,383	30,6
644,713	30,6
645,044	30,59
645,374	30,7
645,704	30,68
646,034	30,73
646,365	30,71
646,695	30,7
647,025	30,73
647,355	30,67
647,685	30,7
648,015	30,73
648,344	30,78
648,674	30,84
649,004	30,84
649,334	30,87
649,663	30,92
649,993	31,01
650,323	31,07
650,652	31,04
650,982	31,09
651,311	31,12
651,64	31,15
651,97	31,15
652,299	31,09
652,628	31,15
652,958	31,15
653,287	31,19
653,616	31,18
653,945	31,18
654,274	31,26
654,603	31,23
654,932	31,21
655,261	31,26
655,589	31,24
655,918	31,32
656,247	31,27
656,576	31,34
656,904	31,29
657,233	31,36
657,561	31,39
657,89	31,47
658,218	31,47
658,547	31,48
658,875	31,51
659,203	31,54
659,532	31,53
659,86	31,51
660,188	31,5
660,516	31,55
660,844	31,57
661,172	31,61
661,5	31,65
661,828	31,66
662,156	31,63
662,484	31,63
662,811	31,57
663,139	31,64
663,467	31,56
663,794	31,5
664,122	31,41
664,45	31,43
664,777	31,43
665,104	31,51
665,432	31,51
665,759	31,52
666,086	31,52
666,414	31,49
666,741	31,54
667,068	31,56
667,395	31,55
667,722	31,57
668,049	31,51
668,376	31,54
668,703	31,53
669,03	31,56
669,357	31,6
669,683	31,57
670,01	31,55
670,337	31,6
670,663	31,72
670,99	31,72
671,317	31,72
671,643	31,64
671,969	31,54
672,296	31,51
672,622	31,52
672,948	31,52
673,275	31,52
673,601	31,51
673,927	31,45
674,253	31,52
674,579	31,48
674,905	31,46
675,231	31,43
675,557	31,43
675,883	31,42
676,209	31,37
676,534	31,42
676,86	31,45
677,186	31,42
677,511	31,4
677,837	31,42
678,162	31,46
678,488	31,48
678,813	31,56
679,139	31,58
679,464	31,59
679,789	31,6
680,114	31,67
680,44	31,69
680,765	31,74
681,09	31,68
681,415	31,63
681,74	31,66
682,065	31,65
682,39	31,68
682,714	31,69
683,039	31,72
683,364	31,73
683,689	31,65
684,013	31,69
684,338	31,63
684,662	31,63
684,987	31,6
685,311	31,66
685,636	31,64
685,96	31,69
686,284	31,66
686,608	31,65
686,933	31,62
687,257	31,6
687,581	31,59
687,905	31,64
688,229	31,68
688,553	31,69
688,877	31,65
689,201	31,67
689,524	31,69
689,848	31,69
690,172	31,67
690,496	31,74
690,819	31,72
691,143	31,76
691,466	31,73
691,79	31,67
692,113	31,63
692,436	31,56
692,76	31,48
693,083	31,53
693,406	31,55
693,729	31,57
694,053	31,57
694,376	31,55
694,699	31,55
695,022	31,64
695,344	31,83
695,667	31,99
695,99	31,99
696,313	32,02
696,636	32,09
696,958	32,11
697,281	32,17
697,604	32,22
697,926	32,29
698,249	32,35
698,571	32,39
698,893	32,39
699,216	32,42
699,538	32,45
699,86	32,49
700,182	32,52
700,504	32,59
700,827	32,58
701,149	32,62
701,471	32,58
701,793	32,52
702,114	32,37
702,436	32,25
702,758	32,18
703,08	32,07
703,401	31,96
703,723	31,92
704,045	31,79
704,366	31,79
704,688	31,71
705,009	31,63
705,331	31,74
705,652	31,81
705,973	31,85
706,294	31,84
706,616	31,79
706,937	31,74
707,258	31,65
707,579	31,64
707,9	31,67
708,221	31,73
708,542	31,8
708,863	31,84
709,183	31,93
709,504	32,03
709,825	32,1
710,145	32,16
710,466	32,22
710,787	32,26
711,107	32,25
711,427	32,29
711,748	32,39
712,068	32,36
712,388	32,34
712,709	32,38
713,029	32,53
713,349	32,6
713,669	32,62
713,989	32,73
714,309	32,83
714,629	32,86
714,949	32,97
715,269	32,92
715,589	32,96
715,908	33,01
716,228	33,02
716,548	33,06
716,867	33,06
717,187	33,05
717,506	33,13
717,826	33,1
718,145	33,15
718,465	33,18
718,784	33,12
719,103	33,12
719,422	33,08
719,741	32,92
720,061	32,95
720,38	33,1
720,699	33,08
721,018	33,05
721,336	33,13
721,655	33,03
721,974	33,03
722,293	33,13
722,612	33,18
722,93	33,2
723,249	33,19
723,567	33,27
723,886	33,41
724,204	33,51
724,523	33,65
724,841	33,7
725,159	33,78
725,477	33,9
725,796	34,02
726,114	34,22
726,432	34,43
726,75	34,52
727,068	34,55
727,386	34,62
727,704	34,67
728,022	34,71
728,339	34,91
728,657	35,1
728,975	35,1
729,292	35,17
729,61	35,24
729,928	35,36
730,245	35,49
730,562	35,59
730,88	35,7
731,197	35,86
731,514	35,94
731,832	35,95
732,149	36,07
732,466	36,14
732,783	36,23
733,1	36,35
733,417	36,44
733,734	36,46
734,051	36,51
734,368	36,61
734,684	36,72
735,001	36,75
735,318	36,81
735,634	36,9
735,951	36,9
736,268	36,9
736,584	36,93
736,9	37,01
737,217	37,01
737,533	37,1
737,849	37,07
738,166	37,05
738,482	37,19
738,798	37,2
739,114	37,36
739,43	37,43
739,746	37,49
740,062	37,47
740,378	37,56
740,693	37,7
741,009	37,81
741,325	37,92
741,641	37,99
741,956	38,12
742,272	38,27
742,587	38,45
742,903	38,58
743,218	38,6
743,533	38,58
743,849	38,7
744,164	38,73
744,479	38,91
744,794	39,1
745,109	39,11
745,424	39,19
745,739	39,16
746,054	39,26
746,369	39,19
746,684	39,21
746,999	39,29
747,313	39,35
747,628	39,34
747,943	39,19
748,257	39,18
748,572	39,22
748,886	39,12
749,201	39,11
749,515	39,25
749,829	39,46
750,144	39,59
750,458	39,59
750,772	39,6
751,086	39,61
751,4	39,74
751,714	39,81
752,028	39,82
752,342	39,77
752,656	39,84
752,97	40,03
753,284	40,12
753,597	40,18
753,911	40,27
754,225	40,39
754,538	40,58
754,852	40,65
755,165	40,7
755,478	40,88
755,792	40,9
756,105	40,98
756,418	40,99
756,731	41,05
757,045	41,13
757,358	41,17
757,671	41,19
757,984	41,19
758,297	41,22
758,609	41,26
758,922	41,26
759,235	41,22
759,548	41,24
759,86	41,12
760,173	40,93
760,486	40,84
760,798	40,75
761,111	40,61
761,423	40,63
761,735	40,62
762,048	40,63
762,36	40,72
762,672	40,7
762,984	40,68
763,296	40,67
763,608	40,78
763,92	40,89
764,232	40,95
764,544	41,02
764,856	41,01
765,168	41,07
765,48	41,3
765,791	41,33
766,103	41,35
766,414	41,61
766,726	41,93
767,037	42,13
767,349	42,44
767,66	42,79
767,972	43,03
768,283	43,34
768,594	43,68
768,905	43,79
769,216	43,99
769,527	44,41
769,838	44,77
770,149	44,87
770,46	44,99
770,771	45,17
771,082	45,36
771,393	45,75
771,703	46
772,014	46,25
772,324	46,39
772,635	46,42
772,945	46,47
773,256	46,51
773,566	46,65
773,877	46,81
774,187	46,91
774,497	47,04
774,807	47,13
775,117	47,04
775,427	47,22
775,737	47,37
776,047	47,23
776,357	47,09
776,667	47,1
776,977	47,16
777,287	47,19
777,596	47,22
777,906	47,16
778,216	47,24
778,525	47,2
778,835	47,48
779,144	47,43
779,453	47,66
779,763	48,01
780,072	48
780,381	47,97
780,69	48,08
781	48,18
781,309	48,24
781,618	48,28
781,927	48,53
782,235	48,67
782,544	49,08
782,853	49,58
783,162	50,02
783,471	50,16
783,779	50,38
784,088	50,31
784,396	50,28
784,705	50,08
785,013	49,76
785,322	49,43
785,63	49,64
785,938	49,48
786,246	49,21
786,554	49,11
786,863	48,98
787,171	48,94
787,479	48,92
787,787	48,85
788,094	48,93
788,402	48,73
788,71	48,75
789,018	48,61
789,326	48,38
789,633	48,18
789,941	48,14
790,248	48,09
790,556	48,21
790,863	48,35
791,171	48,52
791,478	48,71
791,785	49,04
792,092	49,06
792,399	48,97
792,707	48,99
793,014	49,19
793,321	49,53
793,628	49,73
793,934	49,79
794,241	49,81
794,548	49,91
794,855	50,05
795,161	50,17
795,468	50,04
795,775	49,95
796,081	50,21
796,388	50,36
796,694	50,5
797	50,58
797,307	50,8
797,613	50,97
797,919	51,09
798,225	51,25
798,531	51,69
798,837	51,89
799,143	51,97
799,449	51,92
799,755	52,01
800,061	52,02
800,367	52,13
800,672	52,25
800,978	52,28
801,284	52,38
801,589	52,33
801,895	52,64
802,2	52,96
802,506	53,04
802,811	53,04
803,116	52,89
803,421	52,8
803,727	52,54
804,032	52,47
804,337	52,48
804,642	52,4
804,947	52,18
805,252	52,13
805,556	52,24
805,861	52,45
806,166	52,4
806,471	52,3
806,775	52,08
807,08	52,06
807,384	52,01
807,689	52,16
807,993	52,26
808,298	52,16
808,602	52,1
808,906	52,02
809,211	52,09
809,515	52,34
809,819	52,51
810,123	52,94
810,427	53,22
810,731	53,19
811,035	53,21
811,338	53,48
811,642	53,84
811,946	54,1
812,25	54,27
812,553	54,46
812,857	54,57
813,16	54,88
813,464	54,97
813,767	55,24
814,07	55,18
814,374	55,26
814,677	55,46
814,98	55,49
815,283	55,35
815,586	55,26
815,889	55,09
816,192	54,95
816,495	54,68
816,798	54,48
817,101	54,39
817,404	54,14
817,706	53,56
818,009	52,78
818,312	51,84
818,614	50,77
818,917	49,05
819,219	47,39
819,521	45,78
819,824	44,48
820,126	43,29
820,428	42,53
820,73	42,14
821,032	41,63
821,334	41,31
821,636	41,14
821,938	41,09
822,24	41,02
822,542	40,97
822,844	40,96
823,145	40,95
823,447	40,9
823,749	40,82
824,05	40,76
824,352	40,72
824,653	40,7
824,955	40,67
825,256	40,79
825,557	40,95
825,858	41,27
826,16	41,58
826,461	42,06
826,762	42,56
827,063	42,96
827,364	43,63
827,665	44,24
827,965	44,73
828,266	45,07
828,567	45,4
828,868	45,7
829,168	45,92
829,469	46,01
829,769	46,24
830,07	46,54
830,37	46,77
830,67	47,04
830,971	47,36
831,271	47,84
831,571	48,04
831,871	48,33
832,171	48,38
832,471	48,63
832,771	48,71
833,071	48,6
833,371	48,6
833,671	48,47
833,971	48,45
834,27	48,36
834,57	48,55
834,869	48,89
835,169	49,1
835,468	49,19
835,768	49,35
836,067	49,56
836,367	49,73
836,666	50,12
836,965	50,63
837,264	51,18
837,563	51,72
837,862	52,47
838,161	53,04
838,46	53,55
838,759	53,98
839,058	54,51
839,356	55,35
839,655	55,62
839,954	56,06
840,252	56,4
840,551	56,91
840,849	57,15
841,148	57,2
841,446	57,17
841,744	57,17
842,043	57,43
842,341	57,4
842,639	57,74
842,937	57,98
843,235	58,21
843,533	58,54
843,831	58,82
844,129	59,31
844,427	59,84
844,724	60,11
845,022	60,79
845,32	61,39
845,617	62
845,915	63,26
846,212	64,41
846,51	65,25
846,807	66,14
847,104	66,57
847,402	67,04
847,699	67,89
847,996	68,84
848,293	69,63
848,59	70,45
848,887	70,54
849,184	70,75
849,481	71,36
849,778	72,23
850,074	73,04
850,371	73,48
850,668	74,12
850,964	74,6
851,261	74,82
851,557	74,92
851,854	74,92
852,15	74,83
852,446	74,62
852,743	74,47
853,039	74,31
853,335	74,14
853,631	74,05
853,927	73,86
854,223	73,35
854,519	73,2
854,815	73,29
855,111	73,3
855,406	73,61
855,702	74,02
855,998	74,62
856,293	75,04
856,589	75,43
856,884	75,56
857,18	76,12
857,475	76,35
857,77	76,64
858,066	76,92
858,361	76,49
858,656	76,12
858,951	75,69
859,246	75,22
859,541	74,45
859,836	73,99
860,131	73,73
860,426	73,63
860,72	73,53
861,015	73,06
861,31	72,74
861,604	72,49
861,899	71,97
862,193	71,55
862,487	71,56
862,782	71,73
863,076	71,94
863,37	72,14
863,664	72,59
863,959	72,93
864,253	72,73
864,547	73,06
864,841	73,28
865,135	73,82
865,428	74,53
865,722	75,45
866,016	76,01
866,31	76,47
866,603	76,62
866,897	76,49
867,19	76,44
867,484	76,72
867,777	76,81
868,07	77,05
868,364	77,46
868,657	77,64
868,95	77,31
869,243	76,74
869,536	76,53
869,829	76,78
870,122	77,1
870,415	76,96
870,708	76,89
871	76,58
871,293	76,34
871,586	75,9
871,878	75,53
872,171	75,43
872,463	75,53
872,756	75,79
873,048	75,65
873,341	76
873,633	76,23
873,925	76,48
874,217	76,38
874,509	75,33
874,801	74,43
875,093	74,69
875,385	75,31
875,677	75,45
875,969	74,2
