Data from zc74010_3_Reflection_00001.txt Node
Date: Thu Mar 12 15:00:29 ART 2020
User: Ana
Spectrometer: USB2E3644
Trigger mode: 4
Integration Time (sec): 5,000000E-2
Scans to average: 10
Electric dark correction enabled: true
Nonlinearity correction enabled: false
Boxcar width: 10
XAxis mode: Wavelengths
Number of Pixels in Spectrum: 2048
>>>>>Begin Spectral Data<<<<<
178,315	97,63
178,696	102,71
179,076	98,63
179,457	90,53
179,838	107,62
180,218	142,96
180,599	522,22
180,979	58,06
181,36	430,56
181,74	241,36
182,121	191,67
182,501	128,73
182,881	124,42
183,262	121,53
183,642	121,71
184,022	120,16
184,402	120,21
184,783	122,65
185,163	123,42
185,543	126,65
185,923	126,93
186,303	126,79
186,683	126,17
187,063	128,43
187,443	134,54
187,823	141,48
188,203	143,2
188,583	143,03
188,963	141,05
189,343	138,22
189,723	136,99
190,102	139,86
190,482	144,19
190,862	145,56
191,242	145,55
191,621	144,72
192,001	145,44
192,38	147,01
192,76	146,03
193,14	146,36
193,519	145,81
193,898	147,51
194,278	150,72
194,657	154,74
195,037	154,3
195,416	148,57
195,795	144,63
196,175	143,31
196,554	141,6
196,933	139,89
197,312	138,49
197,692	137,43
198,071	135,63
198,45	134,66
198,829	134,99
199,208	135,24
199,587	133,55
199,966	131,74
200,345	129,02
200,724	127,91
201,103	127,09
201,482	126,48
201,86	125,74
202,239	122,85
202,618	120,52
202,997	119,95
203,375	120,65
203,754	121,24
204,133	122,32
204,511	123,53
204,89	123,86
205,269	123,61
205,647	123,17
206,026	122,12
206,404	121,76
206,782	120,78
207,161	120,2
207,539	120,78
207,918	122,1
208,296	124,34
208,674	124,97
209,052	125,26
209,431	125,92
209,809	126,19
210,187	126,98
210,565	126,57
210,943	125,77
211,321	125,28
211,699	125,41
212,077	124,96
212,455	124,65
212,833	125,55
213,211	125,99
213,589	127,24
213,967	128,58
214,345	129,65
214,722	131,61
215,1	133,04
215,478	133,67
215,855	134,23
216,233	134,32
216,611	136,39
216,988	137,56
217,366	136,89
217,743	137,25
218,121	138,28
218,498	140,38
218,876	140,66
219,253	138,88
219,631	137,78
220,008	137,6
220,385	138,21
220,762	138,16
221,14	138,05
221,517	136,59
221,894	135,84
222,271	133,66
222,648	131,21
223,025	129,17
223,402	127,86
223,78	126,58
224,157	125,67
224,533	123,82
224,91	124,2
225,287	126,46
225,664	127,13
226,041	127,42
226,418	127,51
226,795	128,78
227,171	130,72
227,548	131,94
227,925	132,46
228,301	133,18
228,678	135,41
229,055	137,97
229,431	140,68
229,808	143,05
230,184	145,19
230,561	148,32
230,937	152,01
231,313	155,28
231,69	157,39
232,066	159,43
232,442	161,62
232,819	161,63
233,195	159,77
233,571	160,22
233,947	162,72
234,323	164,99
234,699	167
235,075	169,34
235,451	172,58
235,827	176,3
236,203	178,67
236,579	180,09
236,955	184,23
237,331	192,23
237,707	203,52
238,083	218,48
238,459	235,85
238,834	264,68
239,21	311,8
239,586	375,25
239,961	446,93
240,337	525,64
240,713	597,67
241,088	681,43
241,464	784,38
241,839	921,11
242,215	1223,39
242,59	2860,54
242,965	-1749,58
243,341	-496
243,716	-267,31
244,091	-191,71
244,467	-158,51
244,842	-139,49
245,217	-126,86
245,592	-120,42
245,967	-119,28
246,343	-116,74
246,718	-114,93
247,093	-117,4
247,468	-120,69
247,843	-120,89
248,218	-116,14
248,593	-108,17
248,967	-99,83
249,342	-94,85
249,717	-91,53
250,092	-89,44
250,467	-89,98
250,841	-95,75
251,216	-109,28
251,591	-131,9
251,965	-157,53
252,34	-178,13
252,714	-199,37
253,089	-213,99
253,463	-223,42
253,838	-220,44
254,212	-213,61
254,587	-201,62
254,961	-177,91
255,335	-151,02
255,71	-124,21
256,084	-96,61
256,458	-76,9
256,832	-65
257,206	-58,79
257,581	-56,17
257,955	-54,62
258,329	-52,62
258,703	-50,19
259,077	-48,19
259,451	-46,37
259,825	-45,74
260,199	-46,02
260,572	-45,62
260,946	-46,01
261,32	-46,02
261,694	-45,55
262,068	-45,2
262,441	-44,87
262,815	-44,74
263,189	-44,28
263,562	-44,88
263,936	-47,72
264,309	-52,32
264,683	-57,65
265,056	-60,31
265,43	-61
265,803	-60,93
266,176	-60,55
266,55	-60
266,923	-59,01
267,296	-57,71
267,67	-54,93
268,043	-51,82
268,416	-48,43
268,789	-44,92
269,162	-41,91
269,535	-39,27
269,908	-37,28
270,281	-36
270,654	-35,88
271,027	-36,52
271,4	-36,82
271,773	-36,63
272,146	-36,36
272,519	-36,19
272,891	-36,31
273,264	-36,37
273,637	-35,97
274,01	-35,58
274,382	-36,18
274,755	-36,56
275,127	-36,78
275,5	-37
275,872	-37,01
276,245	-37,46
276,617	-38,29
276,99	-38,73
277,362	-39,88
277,734	-40,6
278,107	-40,65
278,479	-40,07
278,851	-39,1
279,223	-38,36
279,596	-37,82
279,968	-37,66
280,34	-36,77
280,712	-35,79
281,084	-34,39
281,456	-33,04
281,828	-31,73
282,2	-29,4
282,572	-27,44
282,944	-25,96
283,315	-25,03
283,687	-24,27
284,059	-23,73
284,431	-23,31
284,802	-22,86
285,174	-22,33
285,546	-21,98
285,917	-21,48
286,289	-20,96
286,66	-20,7
287,032	-20,26
287,403	-20,04
287,775	-19,93
288,146	-20,19
288,518	-20,47
288,889	-20,57
289,26	-20,71
289,632	-21,25
290,003	-22,07
290,374	-22,64
290,745	-23,05
291,116	-23,3
291,487	-23,51
291,858	-23,45
292,229	-23,23
292,6	-22,8
292,971	-21,95
293,342	-21,01
293,713	-20,04
294,084	-19,18
294,455	-18,45
294,826	-18,15
295,196	-18,18
295,567	-18,3
295,938	-18,09
296,308	-17,71
296,679	-17,32
297,05	-16,93
297,42	-16,32
297,791	-15,72
298,161	-15,45
298,532	-15,16
298,902	-14,85
299,272	-14,61
299,643	-14,49
300,013	-14,21
300,383	-14,06
300,754	-14,17
301,124	-14,36
301,494	-14,68
301,864	-15,09
302,234	-15,38
302,604	-15,5
302,974	-15,27
303,344	-14,79
303,714	-14,36
304,084	-14,15
304,454	-14,21
304,824	-14,26
305,194	-14,37
305,563	-14,55
305,933	-14,42
306,303	-14,06
306,673	-13,72
307,042	-13,31
307,412	-12,72
307,781	-12,19
308,151	-11,87
308,521	-11,51
308,89	-11,24
309,259	-11,25
309,629	-11,25
309,998	-11,22
310,368	-11,16
310,737	-10,99
311,106	-10,87
311,475	-10,77
311,845	-10,75
312,214	-10,65
312,583	-10,59
312,952	-10,51
313,321	-10,31
313,69	-10,03
314,059	-9,96
314,428	-9,99
314,797	-10,17
315,166	-10,59
315,535	-11,1
315,904	-11,62
316,272	-12,2
316,641	-12,6
317,01	-12,61
317,379	-12,56
317,747	-12,34
318,116	-11,93
318,484	-11,76
318,853	-11,65
319,221	-11,58
319,59	-11,52
319,958	-11,34
320,327	-11,22
320,695	-11,08
321,063	-10,86
321,432	-10,78
321,8	-10,6
322,168	-10,37
322,536	-10,24
322,905	-9,82
323,273	-9,35
323,641	-8,9
324,009	-8,45
324,377	-8,06
324,745	-7,74
325,113	-7,47
325,481	-7,31
325,849	-7,28
326,216	-7,21
326,584	-7,09
326,952	-6,99
327,32	-6,78
327,687	-6,59
328,055	-6,38
328,423	-6,32
328,79	-6,39
329,158	-6,46
329,525	-6,54
329,893	-6,55
330,26	-6,38
330,628	-6,3
330,995	-6,3
331,362	-6,36
331,73	-6,41
332,097	-6,38
332,464	-6,34
332,831	-6,2
333,199	-6,05
333,566	-5,89
333,933	-5,7
334,3	-5,54
334,667	-5,38
335,034	-5,28
335,401	-5,26
335,768	-5,23
336,135	-5,11
336,502	-4,98
336,868	-4,82
337,235	-4,7
337,602	-4,53
337,969	-4,3
338,335	-4,09
338,702	-3,84
339,069	-3,66
339,435	-3,53
339,802	-3,37
340,168	-3,27
340,535	-3,17
340,901	-3,17
341,267	-3,14
341,634	-2,99
342	-2,84
342,366	-2,7
342,733	-2,61
343,099	-2,49
343,465	-2,43
343,831	-2,36
344,197	-2,25
344,563	-2,18
344,929	-2,08
345,295	-1,96
345,661	-1,89
346,027	-1,88
346,393	-1,86
346,759	-1,77
347,125	-1,67
347,491	-1,63
347,856	-1,63
348,222	-1,68
348,588	-1,56
348,953	-1,49
349,319	-1,58
349,684	-1,6
350,05	-1,62
350,415	-1,59
350,781	-1,54
351,146	-1,45
351,512	-1,33
351,877	-1,3
352,242	-1,24
352,608	-1,19
352,973	-1,17
353,338	-1,17
353,703	-1,13
354,068	-1,14
354,433	-1,04
354,798	-0,94
355,164	-0,85
355,528	-0,74
355,893	-0,67
356,258	-0,66
356,623	-0,56
356,988	-0,38
357,353	-0,25
357,718	-0,12
358,082	-0,02
358,447	0,08
358,812	0,22
359,176	0,29
359,541	0,4
359,905	0,48
360,27	0,55
360,634	0,63
360,999	0,73
361,363	0,83
361,728	0,95
362,092	0,98
362,456	0,97
362,821	0,97
363,185	1
363,549	1,07
363,913	1,09
364,277	1,11
364,641	1,08
365,005	1,08
365,369	1,07
365,733	1,11
366,097	1,12
366,461	1,14
366,825	1,2
367,189	1,21
367,553	1,26
367,916	1,38
368,28	1,47
368,644	1,54
369,007	1,61
369,371	1,69
369,734	1,8
370,098	1,9
370,461	1,99
370,825	2,07
371,188	2,19
371,552	2,29
371,915	2,35
372,278	2,49
372,642	2,63
373,005	2,81
373,368	2,97
373,731	3,11
374,094	3,22
374,457	3,33
374,82	3,49
375,183	3,6
375,546	3,65
375,909	3,69
376,272	3,77
376,635	3,87
376,998	3,92
377,361	3,97
377,723	4,06
378,086	4,14
378,449	4,2
378,811	4,25
379,174	4,33
379,537	4,39
379,899	4,41
380,262	4,43
380,624	4,43
380,987	4,45
381,349	4,51
381,711	4,59
382,074	4,65
382,436	4,71
382,798	4,81
383,16	4,88
383,522	4,95
383,884	4,96
384,247	4,97
384,609	5,03
384,971	5,06
385,333	5,05
385,695	5,07
386,056	5,1
386,418	5,11
386,78	5,11
387,142	5,12
387,504	5,13
387,865	5,16
388,227	5,18
388,589	5,22
388,95	5,22
389,312	5,23
389,673	5,27
390,035	5,25
390,396	5,22
390,758	5,24
391,119	5,23
391,48	5,25
391,842	5,26
392,203	5,25
392,564	5,26
392,925	5,31
393,286	5,35
393,648	5,38
394,009	5,44
394,37	5,48
394,731	5,54
395,092	5,56
395,452	5,58
395,813	5,6
396,174	5,59
396,535	5,6
396,896	5,61
397,257	5,6
397,617	5,63
397,978	5,63
398,338	5,63
398,699	5,69
399,06	5,75
399,42	5,78
399,781	5,8
400,141	5,82
400,501	5,83
400,862	5,84
401,222	5,86
401,582	5,85
401,943	5,86
402,303	5,87
402,663	5,92
403,023	5,93
403,383	5,93
403,743	5,94
404,103	5,98
404,463	6
404,823	6,02
405,183	6,03
405,543	6,06
405,903	6,05
406,262	6,05
406,622	6,01
406,982	6,01
407,342	6,02
407,701	6,02
408,061	6
408,42	6
408,78	6
409,139	5,98
409,499	5,98
409,858	5,98
410,217	5,97
410,577	5,94
410,936	5,94
411,295	5,92
411,655	5,88
412,014	5,85
412,373	5,81
412,732	5,77
413,091	5,73
413,45	5,69
413,809	5,64
414,168	5,6
414,527	5,57
414,886	5,52
415,245	5,48
415,603	5,46
415,962	5,41
416,321	5,36
416,679	5,34
417,038	5,3
417,397	5,26
417,755	5,22
418,114	5,21
418,472	5,19
418,831	5,19
419,189	5,18
419,547	5,18
419,906	5,17
420,264	5,14
420,622	5,12
420,981	5,13
421,339	5,14
421,697	5,15
422,055	5,16
422,413	5,17
422,771	5,19
423,129	5,22
423,487	5,24
423,845	5,26
424,203	5,3
424,56	5,33
424,918	5,36
425,276	5,4
425,634	5,43
425,991	5,46
426,349	5,49
426,707	5,51
427,064	5,53
427,422	5,55
427,779	5,62
428,137	5,67
428,494	5,71
428,851	5,7
429,209	5,7
429,566	5,69
429,923	5,68
430,28	5,67
430,637	5,66
430,995	5,65
431,352	5,64
431,709	5,64
432,066	5,65
432,423	5,65
432,78	5,64
433,137	5,64
433,493	5,63
433,85	5,65
434,207	5,63
434,564	5,61
434,92	5,61
435,277	5,59
435,634	5,57
435,99	5,54
436,347	5,53
436,703	5,54
437,06	5,53
437,416	5,54
437,773	5,52
438,129	5,51
438,485	5,52
438,841	5,51
439,198	5,49
439,554	5,48
439,91	5,48
440,266	5,49
440,622	5,49
440,978	5,47
441,334	5,41
441,69	5,39
442,046	5,38
442,402	5,35
442,758	5,34
443,113	5,34
443,469	5,34
443,825	5,34
444,181	5,34
444,536	5,36
444,892	5,36
445,247	5,37
445,603	5,4
445,958	5,41
446,314	5,42
446,669	5,43
447,025	5,43
447,38	5,43
447,735	5,45
448,09	5,44
448,446	5,46
448,801	5,48
449,156	5,5
449,511	5,53
449,866	5,59
450,221	5,63
450,576	5,67
450,931	5,71
451,286	5,72
451,641	5,77
451,995	5,8
452,35	5,84
452,705	5,85
453,06	5,83
453,414	5,82
453,769	5,81
454,123	5,81
454,478	5,79
454,832	5,78
455,187	5,73
455,541	5,71
455,896	5,67
456,25	5,65
456,604	5,62
456,958	5,6
457,313	5,58
457,667	5,57
458,021	5,57
458,375	5,56
458,729	5,59
459,083	5,57
459,437	5,56
459,791	5,55
460,145	5,55
460,499	5,56
460,852	5,55
461,206	5,56
461,56	5,56
461,914	5,57
462,267	5,57
462,621	5,58
462,974	5,59
463,328	5,62
463,681	5,64
464,035	5,67
464,388	5,69
464,742	5,7
465,095	5,69
465,448	5,69
465,801	5,67
466,155	5,66
466,508	5,65
466,861	5,64
467,214	5,64
467,567	5,63
467,92	5,62
468,273	5,62
468,626	5,62
468,979	5,61
469,332	5,61
469,684	5,6
470,037	5,61
470,39	5,63
470,743	5,64
471,095	5,65
471,448	5,65
471,8	5,65
472,153	5,66
472,505	5,67
472,858	5,66
473,21	5,68
473,562	5,68
473,915	5,69
474,267	5,69
474,619	5,67
474,971	5,67
475,324	5,66
475,676	5,68
476,028	5,7
476,38	5,69
476,732	5,71
477,084	5,72
477,436	5,7
477,787	5,67
478,139	5,64
478,491	5,63
478,843	5,61
479,195	5,58
479,546	5,52
479,898	5,48
480,249	5,41
480,601	5,34
480,952	5,3
481,304	5,28
481,655	5,27
482,007	5,27
482,358	5,26
482,709	5,26
483,061	5,24
483,412	5,22
483,763	5,21
484,114	5,2
484,465	5,19
484,816	5,18
485,167	5,18
485,518	5,18
485,869	5,18
486,22	5,19
486,571	5,19
486,922	5,21
487,272	5,21
487,623	5,23
487,974	5,26
488,324	5,28
488,675	5,27
489,025	5,27
489,376	5,28
489,726	5,27
490,077	5,29
490,427	5,31
490,778	5,32
491,128	5,33
491,478	5,34
491,828	5,37
492,179	5,39
492,529	5,41
492,879	5,43
493,229	5,44
493,579	5,44
493,929	5,44
494,279	5,46
494,629	5,47
494,979	5,48
495,328	5,51
495,678	5,55
496,028	5,59
496,378	5,64
496,727	5,65
497,077	5,69
497,426	5,68
497,776	5,67
498,125	5,66
498,475	5,68
498,824	5,69
499,174	5,7
499,523	5,71
499,872	5,73
500,221	5,72
500,571	5,73
500,92	5,75
501,269	5,77
501,618	5,76
501,967	5,78
502,316	5,79
502,665	5,78
503,014	5,76
503,363	5,75
503,711	5,74
504,06	5,74
504,409	5,72
504,758	5,71
505,106	5,72
505,455	5,71
505,803	5,71
506,152	5,69
506,5	5,68
506,849	5,69
507,197	5,67
507,546	5,69
507,894	5,7
508,242	5,68
508,59	5,66
508,939	5,64
509,287	5,64
509,635	5,64
509,983	5,65
510,331	5,67
510,679	5,68
511,027	5,69
511,375	5,7
511,723	5,7
512,07	5,72
512,418	5,74
512,766	5,75
513,114	5,76
513,461	5,78
513,809	5,78
514,156	5,76
514,504	5,76
514,851	5,75
515,199	5,72
515,546	5,71
515,893	5,71
516,241	5,73
516,588	5,73
516,935	5,74
517,282	5,74
517,63	5,75
517,977	5,75
518,324	5,74
518,671	5,74
519,018	5,75
519,365	5,74
519,711	5,74
520,058	5,75
520,405	5,74
520,752	5,73
521,099	5,74
521,445	5,75
521,792	5,74
522,138	5,73
522,485	5,73
522,832	5,72
523,178	5,72
523,524	5,71
523,871	5,69
524,217	5,67
524,563	5,63
524,91	5,58
525,256	5,53
525,602	5,51
525,948	5,5
526,294	5,5
526,64	5,5
526,986	5,5
527,332	5,49
527,678	5,5
528,024	5,5
528,37	5,51
528,716	5,51
529,061	5,5
529,407	5,51
529,753	5,51
530,098	5,5
530,444	5,5
530,789	5,5
531,135	5,51
531,48	5,52
531,826	5,54
532,171	5,56
532,516	5,59
532,862	5,6
533,207	5,6
533,552	5,59
533,897	5,6
534,242	5,59
534,587	5,6
534,932	5,6
535,277	5,61
535,622	5,62
535,967	5,63
536,312	5,66
536,657	5,67
537,001	5,68
537,346	5,68
537,691	5,67
538,035	5,63
538,38	5,61
538,724	5,61
539,069	5,61
539,413	5,61
539,758	5,61
540,102	5,63
540,446	5,63
540,791	5,64
541,135	5,65
541,479	5,65
541,823	5,65
542,167	5,64
542,512	5,63
542,856	5,6
543,2	5,59
543,543	5,57
543,887	5,57
544,231	5,59
544,575	5,6
544,919	5,63
545,262	5,67
545,606	5,69
545,95	5,69
546,293	5,71
546,637	5,7
546,98	5,71
547,324	5,7
547,667	5,72
548,011	5,72
548,354	5,71
548,697	5,68
549,04	5,68
549,384	5,68
549,727	5,67
550,07	5,69
550,413	5,7
550,756	5,7
551,099	5,7
551,442	5,68
551,785	5,68
552,128	5,67
552,47	5,65
552,813	5,64
553,156	5,66
553,499	5,64
553,841	5,64
554,184	5,64
554,526	5,61
554,869	5,58
555,211	5,58
555,554	5,58
555,896	5,58
556,238	5,55
556,581	5,52
556,923	5,47
557,265	5,44
557,607	5,42
557,949	5,41
558,291	5,39
558,633	5,39
558,975	5,37
559,317	5,35
559,659	5,33
560,001	5,31
560,343	5,26
560,685	5,23
561,026	5,21
561,368	5,17
561,71	5,16
562,051	5,14
562,393	5,12
562,734	5,08
563,076	5,05
563,417	5,04
563,759	5,04
564,1	5,05
564,441	5,04
564,782	5,02
565,124	4,99
565,465	4,96
565,806	4,94
566,147	4,9
566,488	4,87
566,829	4,86
567,17	4,84
567,511	4,83
567,851	4,82
568,192	4,78
568,533	4,76
568,874	4,76
569,214	4,76
569,555	4,73
569,895	4,72
570,236	4,71
570,576	4,7
570,917	4,66
571,257	4,64
571,598	4,62
571,938	4,6
572,278	4,59
572,618	4,59
572,959	4,59
573,299	4,6
573,639	4,59
573,979	4,57
574,319	4,54
574,659	4,53
574,999	4,51
575,339	4,49
575,678	4,46
576,018	4,42
576,358	4,39
576,698	4,37
577,037	4,35
577,377	4,32
577,716	4,29
578,056	4,27
578,395	4,23
578,735	4,21
579,074	4,19
579,413	4,16
579,753	4,13
580,092	4,06
580,431	3,99
580,77	3,96
581,109	3,94
581,448	3,9
581,787	3,86
582,126	3,84
582,465	3,83
582,804	3,82
583,143	3,82
583,482	3,82
583,82	3,82
584,159	3,82
584,498	3,8
584,836	3,8
585,175	3,81
585,514	3,81
585,852	3,8
586,19	3,77
586,529	3,74
586,867	3,73
587,205	3,76
587,544	3,77
587,882	3,78
588,22	3,79
588,558	3,81
588,896	3,82
589,234	3,81
589,572	3,8
589,91	3,79
590,248	3,76
590,586	3,73
590,924	3,71
591,262	3,71
591,599	3,71
591,937	3,7
592,275	3,68
592,612	3,71
592,95	3,73
593,287	3,76
593,625	3,79
593,962	3,81
594,299	3,84
594,637	3,86
594,974	3,88
595,311	3,91
595,648	3,92
595,985	3,93
596,322	3,94
596,659	3,97
596,996	3,99
597,333	3,99
597,67	3,98
598,007	3,98
598,344	3,96
598,681	3,94
599,017	3,95
599,354	3,94
599,691	3,92
600,027	3,9
600,364	3,9
600,7	3,9
601,037	3,91
601,373	3,91
601,71	3,91
602,046	3,9
602,382	3,89
602,718	3,91
603,054	3,9
603,391	3,91
603,727	3,91
604,063	3,92
604,399	3,97
604,735	4,01
605,071	4,03
605,406	4,05
605,742	4,07
606,078	4,08
606,414	4,11
606,749	4,14
607,085	4,17
607,421	4,18
607,756	4,18
608,092	4,17
608,427	4,15
608,762	4,14
609,098	4,14
609,433	4,13
609,768	4,11
610,104	4,09
610,439	4,06
610,774	4,03
611,109	4
611,444	3,95
611,779	3,9
612,114	3,88
612,449	3,87
612,784	3,85
613,118	3,81
613,453	3,77
613,788	3,69
614,123	3,61
614,457	3,56
614,792	3,49
615,126	3,45
615,461	3,42
615,795	3,38
616,13	3,31
616,464	3,26
616,798	3,22
617,132	3,19
617,467	3,17
617,801	3,16
618,135	3,14
618,469	3,13
618,803	3,15
619,137	3,15
619,471	3,13
619,805	3,11
620,139	3,13
620,472	3,16
620,806	3,19
621,14	3,2
621,473	3,22
621,807	3,22
622,141	3,23
622,474	3,23
622,808	3,23
623,141	3,23
623,474	3,26
623,808	3,31
624,141	3,36
624,474	3,43
624,807	3,46
625,141	3,48
625,474	3,53
625,807	3,56
626,14	3,56
626,473	3,56
626,806	3,57
627,138	3,56
627,471	3,53
627,804	3,51
628,137	3,52
628,469	3,53
628,802	3,53
629,135	3,52
629,467	3,52
629,8	3,54
630,132	3,57
630,465	3,56
630,797	3,55
631,129	3,51
631,461	3,48
631,794	3,46
632,126	3,46
632,458	3,43
632,79	3,41
633,122	3,41
633,454	3,41
633,786	3,41
634,118	3,39
634,45	3,4
634,781	3,39
635,113	3,39
635,445	3,38
635,777	3,4
636,108	3,41
636,44	3,39
636,771	3,36
637,103	3,31
637,434	3,29
637,765	3,26
638,097	3,22
638,428	3,19
638,759	3,16
639,09	3,14
639,422	3,1
639,753	3,08
640,084	3,04
640,415	3
640,746	2,97
641,077	2,99
641,407	3,01
641,738	3,02
642,069	3
642,4	3,01
642,73	2,99
643,061	2,98
643,392	2,95
643,722	2,97
644,053	2,98
644,383	2,98
644,713	2,99
645,044	3,03
645,374	3,08
645,704	3,09
646,034	3,09
646,365	3,08
646,695	3,09
647,025	3,12
647,355	3,15
647,685	3,19
648,015	3,17
648,344	3,15
648,674	3,16
649,004	3,15
649,334	3,13
649,663	3,15
649,993	3,17
650,323	3,23
650,652	3,23
650,982	3,24
651,311	3,24
651,64	3,24
651,97	3,23
652,299	3,2
652,628	3,22
652,958	3,23
653,287	3,24
653,616	3,26
653,945	3,28
654,274	3,27
654,603	3,25
654,932	3,25
655,261	3,26
655,589	3,3
655,918	3,33
656,247	3,36
656,576	3,36
656,904	3,4
657,233	3,42
657,561	3,48
657,89	3,52
658,218	3,55
658,547	3,57
658,875	3,57
659,203	3,57
659,532	3,58
659,86	3,59
660,188	3,59
660,516	3,58
660,844	3,58
661,172	3,59
661,5	3,63
661,828	3,64
662,156	3,63
662,484	3,61
662,811	3,58
663,139	3,56
663,467	3,54
663,794	3,47
664,122	3,43
664,45	3,36
664,777	3,32
665,104	3,32
665,432	3,32
665,759	3,31
666,086	3,32
666,414	3,32
666,741	3,3
667,068	3,3
667,395	3,29
667,722	3,29
668,049	3,27
668,376	3,24
668,703	3,26
669,03	3,29
669,357	3,29
669,683	3,28
670,01	3,23
670,337	3,2
670,663	3,19
670,99	3,16
671,317	3,16
671,643	3,14
671,969	3,11
672,296	3,13
672,622	3,17
672,948	3,16
673,275	3,12
673,601	3,09
673,927	3,05
674,253	3,02
674,579	3,01
674,905	2,98
675,231	2,97
675,557	2,94
675,883	2,88
676,209	2,84
676,534	2,85
676,86	2,91
677,186	2,96
677,511	3
677,837	3,06
678,162	3,08
678,488	3,09
678,813	3,11
679,139	3,11
679,464	3,11
679,789	3,09
680,114	3,1
680,44	3,13
680,765	3,15
681,09	3,17
681,415	3,14
681,74	3,15
682,065	3,14
682,39	3,15
682,714	3,16
683,039	3,18
683,364	3,18
683,689	3,16
684,013	3,14
684,338	3,12
684,662	3,09
684,987	3,07
685,311	3,06
685,636	3,04
685,96	2,98
686,284	2,95
686,608	2,89
686,933	2,87
687,257	2,87
687,581	2,9
687,905	2,9
688,229	2,94
688,553	2,93
688,877	2,95
689,201	2,99
689,524	2,99
689,848	2,98
690,172	2,97
690,496	2,96
690,819	2,95
691,143	2,93
691,466	2,89
691,79	2,87
692,113	2,86
692,436	2,86
692,76	2,88
693,083	2,91
693,406	2,98
693,729	2,98
694,053	2,94
694,376	2,91
694,699	2,88
695,022	2,9
695,344	2,95
695,667	2,98
695,99	3,06
696,313	3,16
696,636	3,28
696,958	3,39
697,281	3,49
697,604	3,54
697,926	3,58
698,249	3,61
698,571	3,63
698,893	3,62
699,216	3,61
699,538	3,6
699,86	3,57
700,182	3,56
700,504	3,54
700,827	3,51
701,149	3,46
701,471	3,42
701,793	3,33
702,114	3,27
702,436	3,15
702,758	2,96
703,08	2,75
703,401	2,57
703,723	2,43
704,045	2,31
704,366	2,21
704,688	2,17
705,009	2,18
705,331	2,19
705,652	2,22
705,973	2,23
706,294	2,22
706,616	2,23
706,937	2,26
707,258	2,28
707,579	2,31
707,9	2,36
708,221	2,45
708,542	2,54
708,863	2,58
709,183	2,65
709,504	2,74
709,825	2,82
710,145	2,83
710,466	2,82
710,787	2,79
711,107	2,82
711,427	2,78
711,748	2,76
712,068	2,78
712,388	2,8
712,709	2,87
713,029	2,93
713,349	2,94
713,669	2,91
713,989	2,94
714,309	3,06
714,629	3,14
714,949	3,16
715,269	3,16
715,589	3,16
715,908	3,13
716,228	3,07
716,548	3,05
716,867	3,03
717,187	3,04
717,506	3,09
717,826	3,11
718,145	3,18
718,465	3,19
718,784	3,13
719,103	3,12
719,422	3,07
719,741	3,07
720,061	3,12
720,38	3,22
720,699	3,27
721,018	3,3
721,336	3,41
721,655	3,55
721,974	3,71
722,293	3,88
722,612	4,08
722,93	4,27
723,249	4,44
723,567	4,62
723,886	4,76
724,204	4,89
724,523	5,02
724,841	5,16
725,159	5,31
725,477	5,47
725,796	5,55
726,114	5,68
726,432	5,84
726,75	5,97
727,068	6,12
727,386	6,29
727,704	6,41
728,022	6,45
728,339	6,46
728,657	6,46
728,975	6,48
729,292	6,59
729,61	6,7
729,928	6,84
730,245	7,01
730,562	7,14
730,88	7,27
731,197	7,35
731,514	7,38
731,832	7,46
732,149	7,57
732,466	7,75
732,783	7,87
733,1	7,98
733,417	8,11
733,734	8,18
734,051	8,2
734,368	8,24
734,684	8,29
735,001	8,4
735,318	8,55
735,634	8,66
735,951	8,71
736,268	8,78
736,584	8,84
736,9	8,91
737,217	8,96
737,533	9
737,849	9,12
738,166	9,32
738,482	9,49
738,798	9,64
739,114	9,75
739,43	9,87
739,746	9,89
740,062	9,91
740,378	9,98
740,693	10,08
741,009	10,21
741,325	10,31
741,641	10,36
741,956	10,4
742,272	10,48
742,587	10,53
742,903	10,61
743,218	10,59
743,533	10,63
743,849	10,69
744,164	10,75
744,479	10,81
744,794	10,86
745,109	10,86
745,424	10,87
745,739	10,83
746,054	10,84
746,369	10,86
746,684	11,02
746,999	11,18
747,313	11,22
747,628	11,26
747,943	11,29
748,257	11,38
748,572	11,55
748,886	11,69
749,201	11,86
749,515	11,99
749,829	12,16
750,144	12,26
750,458	12,28
750,772	12,37
751,086	12,42
751,4	12,51
751,714	12,54
752,028	12,63
752,342	12,76
752,656	12,86
752,97	13
753,284	12,99
753,597	13,04
753,911	13,2
754,225	13,3
754,538	13,42
754,852	13,51
755,165	13,59
755,478	13,62
755,792	13,63
756,105	13,73
756,418	13,76
756,731	13,77
757,045	13,89
757,358	14
757,671	14,12
757,984	14,12
758,297	14,18
758,609	14,29
758,922	14,26
759,235	14,23
759,548	14,24
759,86	14,12
760,173	13,85
760,486	13,71
760,798	13,56
761,111	13,41
761,423	13,29
761,735	13,22
762,048	13,3
762,36	13,31
762,672	13,28
762,984	13,29
763,296	13,28
763,608	13,29
763,92	13,3
764,232	13,26
764,544	13,36
764,856	13,45
765,168	13,51
765,48	13,7
765,791	13,87
766,103	14,05
766,414	14,31
766,726	14,7
767,037	15
767,349	15,4
767,66	15,87
767,972	16,35
768,283	16,76
768,594	16,92
768,905	17,17
769,216	17,41
769,527	17,75
769,838	18,1
770,149	18,48
770,46	18,8
770,771	19,19
771,082	19,48
771,393	19,79
771,703	20,07
772,014	20,34
772,324	20,48
772,635	20,59
772,945	20,72
773,256	20,89
773,566	21,05
773,877	21,16
774,187	21,23
774,497	21,35
774,807	21,54
775,117	21,77
775,427	21,93
775,737	22,13
776,047	22,28
776,357	22,39
776,667	22,43
776,977	22,52
777,287	22,67
777,596	22,67
777,906	22,6
778,216	22,6
778,525	22,67
778,835	22,86
779,144	23,32
779,453	23,85
779,763	24,12
780,072	24,31
780,381	24,52
780,69	24,67
781	24,83
781,309	24,81
781,618	24,84
781,927	25,05
782,235	25,19
782,544	25,41
782,853	25,81
783,162	26,06
783,471	26,1
783,779	26,17
784,088	26,25
784,396	26,4
784,705	26,44
785,013	26,22
785,322	25,96
785,63	25,62
785,938	25,03
786,246	24,8
786,554	24,7
786,863	24,64
787,171	24,62
787,479	24,55
787,787	24,6
788,094	24,74
788,402	24,57
788,71	24,52
789,018	24,33
789,326	23,93
789,633	23,69
789,941	23,71
790,248	23,72
790,556	23,95
790,863	24,15
791,171	24,32
791,478	24,56
791,785	24,77
792,092	24,73
792,399	25,01
792,707	25,29
793,014	25,55
793,321	25,74
793,628	25,9
793,934	26,09
794,241	26,17
794,548	26,15
794,855	26,22
795,161	26,24
795,468	26,41
795,775	26,58
796,081	26,77
796,388	27,01
796,694	27,08
797	26,81
797,307	26,74
797,613	26,7
797,919	26,63
798,225	26,79
798,531	27,09
798,837	27,29
799,143	27,25
799,449	27,19
799,755	27,33
800,061	27,43
800,367	27,41
800,672	27,52
800,978	27,59
801,284	27,8
801,589	27,79
801,895	27,69
802,2	27,84
802,506	28,15
802,811	28,1
803,116	28,03
803,421	28,26
803,727	28,26
804,032	28,22
804,337	28,29
804,642	28,36
804,947	28,38
805,252	28,31
805,556	28,37
805,861	28,47
806,166	28,38
806,471	28,31
806,775	28,39
807,08	28,39
807,384	28,48
807,689	28,69
807,993	29,02
808,298	29,28
808,602	29,4
808,906	29,44
809,211	29,68
809,515	29,97
809,819	30,04
810,123	30,3
810,427	30,53
810,731	30,48
811,035	30,29
811,338	30,11
811,642	30,22
811,946	30,35
812,25	30,58
812,553	30,63
812,857	30,52
813,16	30,49
813,464	30,53
813,767	30,6
814,07	30,65
814,374	30,56
814,677	30,47
814,98	30,38
815,283	30,29
815,586	30,07
815,889	29,91
816,192	29,78
816,495	29,68
816,798	29,33
817,101	29,07
817,404	28,78
817,706	28,25
818,009	27,41
818,312	26,6
818,614	25,43
818,917	23,63
819,219	21,64
819,521	19,62
819,824	17,92
820,126	16,54
820,428	15,54
820,73	14,99
821,032	14,57
821,334	14,27
821,636	14,05
821,938	13,86
822,24	13,77
822,542	13,69
822,844	13,58
823,145	13,52
823,447	13,46
823,749	13,37
824,05	13,36
824,352	13,34
824,653	13,31
824,955	13,26
825,256	13,34
825,557	13,54
825,858	13,89
826,16	14,31
826,461	14,83
826,762	15,38
827,063	15,88
827,364	16,44
827,665	16,96
827,965	17,42
828,266	17,91
828,567	18,33
828,868	18,71
829,168	19,01
829,469	19,22
829,769	19,49
830,07	19,83
830,37	20,05
830,67	20,37
830,971	20,62
831,271	21,04
831,571	21,3
831,871	21,42
832,171	21,45
832,471	21,49
832,771	21,74
833,071	21,88
833,371	21,9
833,671	21,97
833,971	21,97
834,27	21,86
834,57	22,01
834,869	22,01
835,169	22,01
835,468	22,13
835,768	22,46
836,067	22,81
836,367	23,17
836,666	23,71
836,965	24,2
837,264	24,91
837,563	25,62
837,862	26,56
838,161	27,57
838,46	28,48
838,759	29,33
839,058	29,88
839,356	30,58
839,655	31,39
839,954	31,9
840,252	32,41
840,551	33,1
840,849	33,48
841,148	33,87
841,446	34,01
841,744	34,3
842,043	34,58
842,341	34,79
842,639	34,7
842,937	34,55
843,235	34,56
843,533	34,7
843,831	35,25
844,129	35,89
844,427	36,6
844,724	37,63
845,022	38,74
845,32	39,73
845,617	40,57
845,915	41,43
846,212	42,59
846,51	43,73
846,807	44,78
847,104	45,76
847,402	46,57
847,699	47,8
847,996	48,62
848,293	49,28
848,59	49,89
848,887	50,61
849,184	51,69
849,481	53,06
849,778	53,86
850,074	54,16
850,371	54,34
850,668	54,66
850,964	54,39
851,261	54,48
851,557	54,81
851,854	55,48
852,15	55,4
852,446	55,17
852,743	54,94
853,039	55,05
853,335	54,83
853,631	54,71
853,927	54,55
854,223	54,34
854,519	54,04
854,815	54
855,111	54,08
855,406	54,13
855,702	54,47
855,998	54,67
856,293	54,89
856,589	55,19
856,884	55,78
857,18	56,33
857,475	56,46
857,77	56,26
858,066	55,81
858,361	55,93
858,656	56,32
858,951	56,59
859,246	56,7
859,541	56,64
859,836	56,82
860,131	56,94
860,426	56,94
860,72	56,96
861,015	56,69
861,31	56,98
861,604	56,99
861,899	56,48
862,193	56,18
862,487	56,38
862,782	56,42
863,076	55,78
863,37	55,65
863,664	55,82
863,959	56
864,253	56,28
864,547	56,2
864,841	56,13
865,135	56,58
865,428	56,64
865,722	56,96
866,016	56,97
866,31	56,61
866,603	56,43
866,897	56,67
867,19	57,22
867,484	58,12
867,777	58,42
868,07	58,69
868,364	59,61
868,657	59,88
868,95	60,07
869,243	60,41
869,536	60,46
869,829	60,67
870,122	61,33
870,415	61,15
870,708	61,55
871	61,46
871,293	60,62
871,586	59,93
871,878	59,48
872,171	59,42
872,463	59,6
872,756	59,75
873,048	59,36
873,341	58,99
873,633	57,77
873,925	57,25
874,217	56,73
874,509	55,68
874,801	55,02
875,093	55,14
875,385	55,16
875,677	55,23
875,969	54,44
