Data from zc74019_4_Reflection_00004.txt Node
Date: Thu Mar 12 14:43:38 ART 2020
User: Ana
Spectrometer: USB2E3644
Trigger mode: 4
Integration Time (sec): 5,000000E-2
Scans to average: 10
Electric dark correction enabled: true
Nonlinearity correction enabled: false
Boxcar width: 10
XAxis mode: Wavelengths
Number of Pixels in Spectrum: 2048
>>>>>Begin Spectral Data<<<<<
178,315	94,08
178,696	90,09
179,076	75,2
179,457	63,52
179,838	64,23
180,218	78,84
180,599	75,56
180,979	110,34
181,36	235,56
181,74	182,54
182,121	178,21
182,501	181,76
182,881	166,21
183,262	148,87
183,642	141,92
184,022	138,57
184,402	138,26
184,783	138,44
185,163	129,97
185,543	129,81
185,923	131,69
186,303	133,58
186,683	133,1
187,063	131,76
187,443	131,03
187,823	136,02
188,203	142,73
188,583	146,97
188,963	147,63
189,343	145,21
189,723	144,81
190,102	144,62
190,482	141,11
190,862	142,02
191,242	145,36
191,621	148,42
192,001	145,33
192,38	142,66
192,76	137,71
193,14	133,46
193,519	132,39
193,898	133,98
194,278	134,3
194,657	134,09
195,037	133,13
195,416	131,95
195,795	131,9
196,175	133,47
196,554	134,59
196,933	135,26
197,312	135,46
197,692	134,91
198,071	133,87
198,45	133,69
198,829	135,99
199,208	136,7
199,587	135,64
199,966	134,47
200,345	133,81
200,724	136,57
201,103	140,76
201,482	142,23
201,86	141,27
202,239	141,18
202,618	140,7
202,997	140,5
203,375	139,48
203,754	138,62
204,133	137,1
204,511	133,91
204,89	132,36
205,269	132,2
205,647	131,42
206,026	132,05
206,404	134,54
206,782	133,75
207,161	132,91
207,539	133,38
207,918	134,81
208,296	135,34
208,674	134,54
209,052	134,89
209,431	137,33
209,809	139,77
210,187	141,85
210,565	143,51
210,943	143,46
211,321	144,43
211,699	143,36
212,077	141,55
212,455	142,45
212,833	144,03
213,211	143,83
213,589	146,38
213,967	147,74
214,345	143,68
214,722	136,96
215,1	133,84
215,478	130,41
215,855	128,99
216,233	129,55
216,611	127,17
216,988	122,13
217,366	118,25
217,743	117,6
218,121	116,31
218,498	115,26
218,876	113,92
219,253	113,5
219,631	114,47
220,008	115,29
220,385	115,34
220,762	114,97
221,14	115,92
221,517	115,33
221,894	113,32
222,271	113,83
222,648	119,02
223,025	122,13
223,402	125,22
223,78	127,94
224,157	130,45
224,533	136,78
224,91	146,94
225,287	155,21
225,664	161,16
226,041	167,5
226,418	172,88
226,795	180,6
227,171	191,24
227,548	196
227,925	198,14
228,301	201,8
228,678	204,98
229,055	204,91
229,431	209,71
229,808	217,64
230,184	221,74
230,561	229,31
230,937	241,62
231,313	251,43
231,69	251,28
232,066	248,64
232,442	237,18
232,819	227,62
233,195	221,37
233,571	219,84
233,947	213,27
234,323	210,9
234,699	209,57
235,075	206,39
235,451	211,5
235,827	218,36
236,203	229,98
236,579	244,6
236,955	264,63
237,331	288,27
237,707	327,94
238,083	399,22
238,459	524,59
238,834	932,62
239,21	5842,22
239,586	-1365,13
239,961	-803,83
240,337	-581,22
240,713	-504,55
241,088	-468,86
241,464	-441
241,839	-409,89
242,215	-349,59
242,59	-281,41
242,965	-201,22
243,341	-142,04
243,716	-105,13
244,091	-86,53
244,467	-76,47
244,842	-69,15
245,217	-63,33
245,592	-60,42
245,967	-61,22
246,343	-60,4
246,718	-59,49
247,093	-59,9
247,468	-60,2
247,843	-58,35
248,218	-55,12
248,593	-50,5
248,967	-46,41
249,342	-44,03
249,717	-42,77
250,092	-42,06
250,467	-42,61
250,841	-45,49
251,216	-50,98
251,591	-59,09
251,965	-66,74
252,34	-71,46
252,714	-77,34
253,089	-81,63
253,463	-84,22
253,838	-81,96
254,212	-79,37
254,587	-76,72
254,961	-69,78
255,335	-61,39
255,71	-52,22
256,084	-42,35
256,458	-35,69
256,832	-31,32
257,206	-29
257,581	-27,52
257,955	-26,49
258,329	-25,21
258,703	-23,76
259,077	-22,64
259,451	-21,56
259,825	-21,31
260,199	-21,87
260,572	-21,95
260,946	-22,26
261,32	-22,13
261,694	-21,76
262,068	-21,77
262,441	-21,57
262,815	-21,95
263,189	-21,99
263,562	-22,56
263,936	-24,37
264,309	-26,78
264,683	-29,25
265,056	-30,38
265,43	-30,78
265,803	-30,67
266,176	-30,33
266,55	-29,9
266,923	-29,63
267,296	-28,95
267,67	-27,57
268,043	-26,1
268,416	-24,4
268,789	-22,64
269,162	-21,13
269,535	-20,06
269,908	-19,18
270,281	-18,76
270,654	-18,42
271,027	-18,53
271,4	-18,66
271,773	-18,71
272,146	-18,53
272,519	-18,04
272,891	-17,91
273,264	-17,83
273,637	-17,64
274,01	-17,37
274,382	-17,59
274,755	-17,56
275,127	-17,63
275,5	-17,84
275,872	-17,96
276,245	-18,4
276,617	-18,89
276,99	-19,48
277,362	-19,93
277,734	-19,8
278,107	-19,29
278,479	-18,73
278,851	-18,45
279,223	-18,25
279,596	-18,12
279,968	-18,07
280,34	-17,95
280,712	-17,57
281,084	-16,88
281,456	-16,23
281,828	-15,73
282,2	-14,89
282,572	-14,16
282,944	-13,7
283,315	-13,36
283,687	-13
284,059	-12,72
284,431	-12,54
284,802	-12,2
285,174	-11,83
285,546	-11,61
285,917	-11,4
286,289	-11,19
286,66	-10,9
287,032	-10,52
287,403	-10,15
287,775	-9,93
288,146	-10,1
288,518	-10,35
288,889	-10,45
289,26	-10,45
289,632	-10,66
290,003	-11,05
290,374	-11,25
290,745	-11,28
291,116	-11,24
291,487	-11,27
291,858	-11,26
292,229	-11,17
292,6	-10,9
292,971	-10,34
293,342	-9,86
293,713	-9,41
294,084	-9,18
294,455	-8,88
294,826	-8,71
295,196	-8,74
295,567	-9,03
295,938	-8,88
296,308	-8,52
296,679	-8,24
297,05	-8,04
297,42	-7,67
297,791	-7,23
298,161	-7,12
298,532	-6,92
298,902	-6,76
299,272	-6,58
299,643	-6,45
300,013	-6,18
300,383	-6,13
300,754	-6,37
301,124	-6,62
301,494	-6,86
301,864	-6,99
302,234	-7,06
302,604	-7
302,974	-6,87
303,344	-6,33
303,714	-5,93
304,084	-5,48
304,454	-5,29
304,824	-5,32
305,194	-5,44
305,563	-5,38
305,933	-5,18
306,303	-4,93
306,673	-4,55
307,042	-4,14
307,412	-3,57
307,781	-3,1
308,151	-2,74
308,521	-2,48
308,89	-2,23
309,259	-2,22
309,629	-2,23
309,998	-2,25
310,368	-2,28
310,737	-2,14
311,106	-2,08
311,475	-1,99
311,845	-2,07
312,214	-2,1
312,583	-2
312,952	-1,87
313,321	-1,74
313,69	-1,47
314,059	-1,29
314,428	-1,3
314,797	-1,36
315,166	-1,56
315,535	-1,88
315,904	-2,18
316,272	-2,4
316,641	-2,48
317,01	-2,27
317,379	-1,97
317,747	-1,66
318,116	-1,42
318,484	-1,36
318,853	-1,37
319,221	-1,42
319,59	-1,39
319,958	-1,18
320,327	-0,93
320,695	-0,71
321,063	-0,57
321,432	-0,4
321,8	-0,22
322,168	-0,03
322,536	0,09
322,905	0,34
323,273	0,71
323,641	1,01
324,009	1,28
324,377	1,48
324,745	1,61
325,113	1,76
325,481	1,94
325,849	2,03
326,216	2,15
326,584	2,26
326,952	2,37
327,32	2,53
327,687	2,61
328,055	2,62
328,423	2,59
328,79	2,59
329,158	2,53
329,525	2,42
329,893	2,37
330,26	2,51
330,628	2,54
330,995	2,56
331,362	2,69
331,73	2,76
332,097	2,78
332,464	2,89
332,831	3,04
333,199	3,12
333,566	3,28
333,933	3,41
334,3	3,58
334,667	3,76
335,034	3,88
335,401	3,94
335,768	4
336,135	4,19
336,502	4,37
336,868	4,55
337,235	4,66
337,602	4,79
337,969	4,92
338,335	5,09
338,702	5,23
339,069	5,24
339,435	5,27
339,802	5,35
340,168	5,39
340,535	5,34
340,901	5,23
341,267	5,13
341,634	5,21
342	5,35
342,366	5,42
342,733	5,41
343,099	5,54
343,465	5,61
343,831	5,65
344,197	5,66
344,563	5,67
344,929	5,76
345,295	5,9
345,661	5,95
346,027	5,96
346,393	5,97
346,759	6,08
347,125	6,18
347,491	6,26
347,856	6,32
348,222	6,42
348,588	6,58
348,953	6,7
349,319	6,72
349,684	6,69
350,05	6,68
350,415	6,78
350,781	6,8
351,146	6,89
351,512	6,93
351,877	7
352,242	7,03
352,608	7,09
352,973	7,1
353,338	7,2
353,703	7,35
354,068	7,45
354,433	7,47
354,798	7,49
355,164	7,58
355,528	7,62
355,893	7,59
356,258	7,58
356,623	7,67
356,988	7,83
357,353	7,94
357,718	8,06
358,082	8,16
358,447	8,27
358,812	8,39
359,176	8,53
359,541	8,65
359,905	8,75
360,27	8,78
360,634	8,88
360,999	8,97
361,363	9
361,728	9,05
362,092	9,14
362,456	9,22
362,821	9,32
363,185	9,41
363,549	9,58
363,913	9,71
364,277	9,78
364,641	9,8
365,005	9,88
365,369	9,94
365,733	10,05
366,097	10,16
366,461	10,21
366,825	10,23
367,189	10,29
367,553	10,37
367,916	10,5
368,28	10,57
368,644	10,59
369,007	10,67
369,371	10,78
369,734	10,86
370,098	10,97
370,461	11,03
370,825	11,12
371,188	11,19
371,552	11,23
371,915	11,29
372,278	11,39
372,642	11,51
373,005	11,62
373,368	11,74
373,731	11,86
374,094	11,98
374,457	12,07
374,82	12,17
375,183	12,25
375,546	12,35
375,909	12,44
376,272	12,54
376,635	12,61
376,998	12,69
377,361	12,76
377,723	12,79
378,086	12,83
378,449	12,83
378,811	12,87
379,174	12,96
379,537	13,05
379,899	13,11
380,262	13,12
380,624	13,16
380,987	13,18
381,349	13,21
381,711	13,27
382,074	13,36
382,436	13,44
382,798	13,59
383,16	13,62
383,522	13,65
383,884	13,7
384,247	13,79
384,609	13,84
384,971	13,92
385,333	14
385,695	14,08
386,056	14,15
386,418	14,2
386,78	14,22
387,142	14,22
387,504	14,22
387,865	14,26
388,227	14,27
388,589	14,31
388,95	14,35
389,312	14,31
389,673	14,32
390,035	14,34
390,396	14,3
390,758	14,33
391,119	14,37
391,48	14,41
391,842	14,42
392,203	14,43
392,564	14,45
392,925	14,46
393,286	14,48
393,648	14,51
394,009	14,55
394,37	14,59
394,731	14,62
395,092	14,66
395,452	14,68
395,813	14,74
396,174	14,77
396,535	14,78
396,896	14,83
397,257	14,86
397,617	14,89
397,978	14,92
398,338	14,97
398,699	15,04
399,06	15,08
399,42	15,09
399,781	15,1
400,141	15,14
400,501	15,15
400,862	15,2
401,222	15,21
401,582	15,23
401,943	15,27
402,303	15,31
402,663	15,35
403,023	15,37
403,383	15,39
403,743	15,39
404,103	15,43
404,463	15,48
404,823	15,51
405,183	15,54
405,543	15,57
405,903	15,55
406,262	15,5
406,622	15,48
406,982	15,53
407,342	15,58
407,701	15,58
408,061	15,63
408,42	15,67
408,78	15,74
409,139	15,78
409,499	15,81
409,858	15,82
410,217	15,89
410,577	15,92
410,936	15,95
411,295	15,96
411,655	15,96
412,014	15,95
412,373	15,96
412,732	15,95
413,091	15,93
413,45	15,97
413,809	15,95
414,168	15,94
414,527	15,89
414,886	15,84
415,245	15,8
415,603	15,76
415,962	15,72
416,321	15,67
416,679	15,64
417,038	15,58
417,397	15,58
417,755	15,53
418,114	15,51
418,472	15,48
418,831	15,48
419,189	15,49
419,547	15,49
419,906	15,46
420,264	15,44
420,622	15,43
420,981	15,41
421,339	15,42
421,697	15,42
422,055	15,45
422,413	15,48
422,771	15,51
423,129	15,55
423,487	15,57
423,845	15,62
424,203	15,64
424,56	15,68
424,918	15,71
425,276	15,75
425,634	15,8
425,991	15,84
426,349	15,89
426,707	15,9
427,064	15,96
427,422	16,01
427,779	16,07
428,137	16,15
428,494	16,24
428,851	16,29
429,209	16,34
429,566	16,35
429,923	16,34
430,28	16,34
430,637	16,33
430,995	16,31
431,352	16,3
431,709	16,31
432,066	16,35
432,423	16,34
432,78	16,35
433,137	16,37
433,493	16,36
433,85	16,39
434,207	16,37
434,564	16,34
434,92	16,34
435,277	16,34
435,634	16,33
435,99	16,31
436,347	16,31
436,703	16,32
437,06	16,33
437,416	16,36
437,773	16,37
438,129	16,39
438,485	16,43
438,841	16,42
439,198	16,42
439,554	16,4
439,91	16,4
440,266	16,41
440,622	16,42
440,978	16,42
441,334	16,4
441,69	16,41
442,046	16,41
442,402	16,39
442,758	16,39
443,113	16,39
443,469	16,39
443,825	16,4
444,181	16,41
444,536	16,41
444,892	16,42
445,247	16,42
445,603	16,41
445,958	16,42
446,314	16,43
446,669	16,45
447,025	16,48
447,38	16,49
447,735	16,49
448,09	16,5
448,446	16,52
448,801	16,54
449,156	16,56
449,511	16,59
449,866	16,64
450,221	16,67
450,576	16,7
450,931	16,76
451,286	16,8
451,641	16,83
451,995	16,88
452,35	16,94
452,705	16,98
453,06	17,02
453,414	17,03
453,769	17,05
454,123	17,05
454,478	17,05
454,832	17,08
455,187	17,08
455,541	17,08
455,896	17,08
456,25	17,05
456,604	17,02
456,958	17,03
457,313	17,04
457,667	17,05
458,021	17,06
458,375	17,06
458,729	17,09
459,083	17,09
459,437	17,09
459,791	17,08
460,145	17,08
460,499	17,08
460,852	17,09
461,206	17,1
461,56	17,12
461,914	17,14
462,267	17,14
462,621	17,16
462,974	17,18
463,328	17,18
463,681	17,22
464,035	17,26
464,388	17,28
464,742	17,28
465,095	17,31
465,448	17,32
465,801	17,32
466,155	17,3
466,508	17,31
466,861	17,29
467,214	17,3
467,567	17,3
467,92	17,33
468,273	17,33
468,626	17,34
468,979	17,34
469,332	17,33
469,684	17,34
470,037	17,37
470,39	17,38
470,743	17,41
471,095	17,45
471,448	17,47
471,8	17,48
472,153	17,52
472,505	17,53
472,858	17,55
473,21	17,57
473,562	17,6
473,915	17,62
474,267	17,65
474,619	17,64
474,971	17,65
475,324	17,63
475,676	17,66
476,028	17,67
476,38	17,69
476,732	17,7
477,084	17,72
477,436	17,68
477,787	17,69
478,139	17,7
478,491	17,68
478,843	17,66
479,195	17,65
479,546	17,62
479,898	17,6
480,249	17,58
480,601	17,57
480,952	17,57
481,304	17,59
481,655	17,59
482,007	17,58
482,358	17,57
482,709	17,57
483,061	17,57
483,412	17,56
483,763	17,57
484,114	17,57
484,465	17,57
484,816	17,57
485,167	17,57
485,518	17,56
485,869	17,58
486,22	17,59
486,571	17,59
486,922	17,61
487,272	17,63
487,623	17,65
487,974	17,65
488,324	17,65
488,675	17,65
489,025	17,65
489,376	17,68
489,726	17,69
490,077	17,71
490,427	17,72
490,778	17,73
491,128	17,74
491,478	17,75
491,828	17,78
492,179	17,81
492,529	17,83
492,879	17,84
493,229	17,84
493,579	17,85
493,929	17,86
494,279	17,87
494,629	17,88
494,979	17,9
495,328	17,94
495,678	17,97
496,028	18,01
496,378	18,03
496,727	18,04
497,077	18,05
497,426	18,07
497,776	18,08
498,125	18,09
498,475	18,1
498,824	18,14
499,174	18,16
499,523	18,17
499,872	18,19
500,221	18,22
500,571	18,26
500,92	18,27
501,269	18,3
501,618	18,31
501,967	18,34
502,316	18,38
502,665	18,37
503,014	18,37
503,363	18,38
503,711	18,41
504,06	18,43
504,409	18,44
504,758	18,42
505,106	18,45
505,455	18,49
505,803	18,48
506,152	18,46
506,5	18,46
506,849	18,48
507,197	18,5
507,546	18,5
507,894	18,51
508,242	18,54
508,59	18,53
508,939	18,54
509,287	18,54
509,635	18,54
509,983	18,57
510,331	18,58
510,679	18,6
511,027	18,61
511,375	18,62
511,723	18,65
512,07	18,7
512,418	18,7
512,766	18,7
513,114	18,72
513,461	18,76
513,809	18,74
514,156	18,74
514,504	18,72
514,851	18,72
515,199	18,7
515,546	18,69
515,893	18,7
516,241	18,71
516,588	18,71
516,935	18,73
517,282	18,73
517,63	18,75
517,977	18,74
518,324	18,73
518,671	18,73
519,018	18,74
519,365	18,75
519,711	18,76
520,058	18,8
520,405	18,82
520,752	18,82
521,099	18,85
521,445	18,86
521,792	18,89
522,138	18,9
522,485	18,91
522,832	18,94
523,178	18,94
523,524	18,93
523,871	18,94
524,217	18,94
524,563	18,93
524,91	18,91
525,256	18,9
525,602	18,91
525,948	18,92
526,294	18,93
526,64	18,92
526,986	18,92
527,332	18,91
527,678	18,91
528,024	18,91
528,37	18,92
528,716	18,92
529,061	18,92
529,407	18,93
529,753	18,94
530,098	18,94
530,444	18,95
530,789	18,96
531,135	18,97
531,48	18,98
531,826	19
532,171	19,02
532,516	19,03
532,862	19,03
533,207	19,01
533,552	18,99
533,897	19
534,242	19,01
534,587	19,02
534,932	19,04
535,277	19,04
535,622	19,04
535,967	19,06
536,312	19,07
536,657	19,09
537,001	19,11
537,346	19,1
537,691	19,1
538,035	19,1
538,38	19,1
538,724	19,11
539,069	19,11
539,413	19,12
539,758	19,13
540,102	19,16
540,446	19,18
540,791	19,2
541,135	19,21
541,479	19,22
541,823	19,21
542,167	19,19
542,512	19,2
542,856	19,21
543,2	19,2
543,543	19,2
543,887	19,19
544,231	19,2
544,575	19,22
544,919	19,24
545,262	19,25
545,606	19,26
545,95	19,26
546,293	19,25
546,637	19,27
546,98	19,28
547,324	19,29
547,667	19,35
548,011	19,35
548,354	19,36
548,697	19,37
549,04	19,38
549,384	19,4
549,727	19,38
550,07	19,4
550,413	19,38
550,756	19,4
551,099	19,41
551,442	19,41
551,785	19,42
552,128	19,44
552,47	19,43
552,813	19,44
553,156	19,45
553,499	19,48
553,841	19,49
554,184	19,51
554,526	19,49
554,869	19,44
555,211	19,45
555,554	19,44
555,896	19,43
556,238	19,41
556,581	19,39
556,923	19,38
557,265	19,35
557,607	19,39
557,949	19,34
558,291	19,34
558,633	19,34
558,975	19,34
559,317	19,33
559,659	19,33
560,001	19,32
560,343	19,32
560,685	19,3
561,026	19,29
561,368	19,29
561,71	19,27
562,051	19,26
562,393	19,25
562,734	19,21
563,076	19,2
563,417	19,21
563,759	19,22
564,1	19,24
564,441	19,23
564,782	19,19
565,124	19,2
565,465	19,2
565,806	19,17
566,147	19,14
566,488	19,12
566,829	19,11
567,17	19,11
567,511	19,1
567,851	19,08
568,192	19,06
568,533	19,03
568,874	19,03
569,214	19,01
569,555	18,96
569,895	18,98
570,236	18,96
570,576	18,92
570,917	18,93
571,257	18,9
571,598	18,89
571,938	18,89
572,278	18,9
572,618	18,92
572,959	18,95
573,299	18,95
573,639	18,95
573,979	18,97
574,319	18,95
574,659	18,95
574,999	18,97
575,339	18,95
575,678	18,96
576,018	18,94
576,358	18,95
576,698	18,96
577,037	18,95
577,377	18,95
577,716	18,94
578,056	18,94
578,395	18,92
578,735	18,92
579,074	18,9
579,413	18,88
579,753	18,83
580,092	18,75
580,431	18,75
580,77	18,74
581,109	18,7
581,448	18,68
581,787	18,66
582,126	18,63
582,465	18,62
582,804	18,61
583,143	18,62
583,482	18,64
583,82	18,67
584,159	18,66
584,498	18,68
584,836	18,69
585,175	18,68
585,514	18,7
585,852	18,69
586,19	18,68
586,529	18,67
586,867	18,68
587,205	18,7
587,544	18,72
587,882	18,73
588,22	18,74
588,558	18,76
588,896	18,79
589,234	18,78
589,572	18,78
589,91	18,78
590,248	18,78
590,586	18,79
590,924	18,77
591,262	18,78
591,599	18,76
591,937	18,78
592,275	18,77
592,612	18,8
592,95	18,8
593,287	18,86
593,625	18,86
593,962	18,85
594,299	18,89
594,637	18,91
594,974	18,92
595,311	18,94
595,648	18,93
595,985	18,92
596,322	18,92
596,659	18,94
596,996	18,93
597,333	18,93
597,67	18,92
598,007	18,91
598,344	18,91
598,681	18,94
599,017	18,95
599,354	18,97
599,691	18,95
600,027	18,98
600,364	18,98
600,7	19,03
601,037	19,07
601,373	19,07
601,71	19,08
602,046	19,1
602,382	19,11
602,718	19,13
603,054	19,12
603,391	19,15
603,727	19,18
604,063	19,2
604,399	19,21
604,735	19,21
605,071	19,24
605,406	19,26
605,742	19,26
606,078	19,26
606,414	19,27
606,749	19,31
607,085	19,31
607,421	19,31
607,756	19,31
608,092	19,29
608,427	19,29
608,762	19,27
609,098	19,27
609,433	19,26
609,768	19,25
610,104	19,26
610,439	19,26
610,774	19,23
611,109	19,23
611,444	19,23
611,779	19,2
612,114	19,16
612,449	19,13
612,784	19,09
613,118	19,08
613,453	19,04
613,788	18,96
614,123	18,92
614,457	18,92
614,792	18,88
615,126	18,9
615,461	18,89
615,795	18,88
616,13	18,83
616,464	18,81
616,798	18,79
617,132	18,79
617,467	18,78
617,801	18,79
618,135	18,79
618,469	18,77
618,803	18,83
619,137	18,86
619,471	18,89
619,805	18,89
620,139	18,95
620,472	18,99
620,806	19,05
621,14	19,05
621,473	19,02
621,807	19,02
622,141	19,03
622,474	19,02
622,808	19,01
623,141	19,06
623,474	19,12
623,808	19,16
624,141	19,17
624,474	19,2
624,807	19,18
625,141	19,18
625,474	19,22
625,807	19,22
626,14	19,23
626,473	19,22
626,806	19,22
627,138	19,17
627,471	19,11
627,804	19,1
628,137	19,12
628,469	19,14
628,802	19,13
629,135	19,1
629,467	19,12
629,8	19,13
630,132	19,15
630,465	19,13
630,797	19,1
631,129	19,1
631,461	19,07
631,794	19,1
632,126	19,08
632,458	19,08
632,79	19,07
633,122	19,08
633,454	19,09
633,786	19,11
634,118	19,14
634,45	19,21
634,781	19,22
635,113	19,23
635,445	19,25
635,777	19,27
636,108	19,3
636,44	19,3
636,771	19,32
637,103	19,27
637,434	19,25
637,765	19,27
638,097	19,29
638,428	19,3
638,759	19,3
639,09	19,32
639,422	19,31
639,753	19,31
640,084	19,3
640,415	19,33
640,746	19,32
641,077	19,33
641,407	19,32
641,738	19,31
642,069	19,32
642,4	19,3
642,73	19,31
643,061	19,31
643,392	19,31
643,722	19,3
644,053	19,32
644,383	19,35
644,713	19,36
645,044	19,35
645,374	19,37
645,704	19,35
646,034	19,33
646,365	19,35
646,695	19,39
647,025	19,42
647,355	19,43
647,685	19,45
648,015	19,44
648,344	19,41
648,674	19,38
649,004	19,37
649,334	19,39
649,663	19,38
649,993	19,37
650,323	19,38
650,652	19,37
650,982	19,41
651,311	19,41
651,64	19,41
651,97	19,39
652,299	19,36
652,628	19,42
652,958	19,43
653,287	19,43
653,616	19,42
653,945	19,41
654,274	19,42
654,603	19,41
654,932	19,41
655,261	19,46
655,589	19,52
655,918	19,56
656,247	19,57
656,576	19,59
656,904	19,6
657,233	19,65
657,561	19,68
657,89	19,72
658,218	19,72
658,547	19,71
658,875	19,72
659,203	19,71
659,532	19,68
659,86	19,7
660,188	19,73
660,516	19,71
660,844	19,7
661,172	19,7
661,5	19,74
661,828	19,73
662,156	19,73
662,484	19,74
662,811	19,69
663,139	19,66
663,467	19,61
663,794	19,6
664,122	19,59
664,45	19,58
664,777	19,5
665,104	19,53
665,432	19,52
665,759	19,5
666,086	19,55
666,414	19,57
666,741	19,57
667,068	19,56
667,395	19,58
667,722	19,6
668,049	19,59
668,376	19,54
668,703	19,56
669,03	19,59
669,357	19,55
669,683	19,56
670,01	19,56
670,337	19,59
670,663	19,63
670,99	19,56
671,317	19,55
671,643	19,57
671,969	19,55
672,296	19,6
672,622	19,64
672,948	19,6
673,275	19,62
673,601	19,61
673,927	19,58
674,253	19,59
674,579	19,59
674,905	19,62
675,231	19,62
675,557	19,61
675,883	19,57
676,209	19,61
676,534	19,62
676,86	19,65
677,186	19,68
677,511	19,68
677,837	19,65
678,162	19,63
678,488	19,67
678,813	19,69
679,139	19,66
679,464	19,65
679,789	19,64
680,114	19,61
680,44	19,64
680,765	19,67
681,09	19,62
681,415	19,56
681,74	19,54
682,065	19,56
682,39	19,62
682,714	19,61
683,039	19,57
683,364	19,56
683,689	19,54
684,013	19,53
684,338	19,5
684,662	19,56
684,987	19,63
685,311	19,63
685,636	19,59
685,96	19,63
686,284	19,68
686,608	19,68
686,933	19,65
687,257	19,63
687,581	19,63
687,905	19,67
688,229	19,73
688,553	19,71
688,877	19,71
689,201	19,66
689,524	19,71
689,848	19,82
690,172	19,86
690,496	19,9
690,819	19,95
691,143	19,96
691,466	19,97
691,79	19,96
692,113	19,95
692,436	19,94
692,76	19,93
693,083	19,89
693,406	19,94
693,729	19,99
694,053	19,96
694,376	19,95
694,699	19,95
695,022	20,01
695,344	20,16
695,667	20,27
695,99	20,27
696,313	20,29
696,636	20,28
696,958	20,29
697,281	20,28
697,604	20,27
697,926	20,33
698,249	20,38
698,571	20,33
698,893	20,29
699,216	20,26
699,538	20,22
699,86	20,25
700,182	20,28
700,504	20,32
700,827	20,33
701,149	20,31
701,471	20,33
701,793	20,28
702,114	20,2
702,436	20,12
702,758	20,13
703,08	20,04
703,401	19,99
703,723	19,94
704,045	19,93
704,366	19,91
704,688	19,9
705,009	19,85
705,331	19,92
705,652	19,95
705,973	19,98
706,294	20,05
706,616	19,98
706,937	19,94
707,258	19,84
707,579	19,88
707,9	19,92
708,221	19,99
708,542	20,05
708,863	20,06
709,183	20
709,504	19,96
709,825	20,03
710,145	20,04
710,466	20,05
710,787	20,11
711,107	20,13
711,427	20,1
711,748	20,12
712,068	20,14
712,388	20,21
712,709	20,29
713,029	20,4
713,349	20,48
713,669	20,47
713,989	20,52
714,309	20,58
714,629	20,67
714,949	20,7
715,269	20,68
715,589	20,71
715,908	20,76
716,228	20,78
716,548	20,81
716,867	20,8
717,187	20,85
717,506	20,83
717,826	20,82
718,145	20,83
718,465	20,84
718,784	20,8
719,103	20,82
719,422	20,87
719,741	20,81
720,061	20,85
720,38	20,99
720,699	21,09
721,018	21,1
721,336	21,11
721,655	21,09
721,974	21,13
722,293	21,18
722,612	21,38
722,93	21,46
723,249	21,48
723,567	21,61
723,886	21,71
724,204	21,84
724,523	21,95
724,841	22,06
725,159	22,15
725,477	22,31
725,796	22,38
726,114	22,44
726,432	22,55
726,75	22,68
727,068	22,74
727,386	22,86
727,704	23,04
728,022	23,17
728,339	23,29
728,657	23,37
728,975	23,45
729,292	23,43
729,61	23,58
729,928	23,72
730,245	23,82
730,562	23,92
730,88	23,99
731,197	24,09
731,514	24,18
731,832	24,27
732,149	24,32
732,466	24,38
732,783	24,44
733,1	24,52
733,417	24,56
733,734	24,66
734,051	24,68
734,368	24,68
734,684	24,69
735,001	24,73
735,318	24,88
735,634	25,01
735,951	25,1
736,268	25,1
736,584	25,09
736,9	25,08
737,217	25,1
737,533	25,06
737,849	25,19
738,166	25,3
738,482	25,45
738,798	25,67
739,114	25,8
739,43	25,92
739,746	25,91
740,062	25,99
740,378	26,03
740,693	26,16
741,009	26,32
741,325	26,39
741,641	26,48
741,956	26,57
742,272	26,59
742,587	26,77
742,903	26,93
743,218	27,06
743,533	27,2
743,849	27,32
744,164	27,46
744,479	27,5
744,794	27,6
745,109	27,56
745,424	27,58
745,739	27,58
746,054	27,49
746,369	27,56
746,684	27,66
746,999	27,83
747,313	27,92
747,628	27,88
747,943	27,91
748,257	27,92
748,572	27,99
748,886	28,17
749,201	28,17
749,515	28,22
749,829	28,23
750,144	28,32
750,458	28,32
750,772	28,37
751,086	28,33
751,4	28,27
751,714	28,36
752,028	28,25
752,342	28,35
752,656	28,46
752,97	28,59
753,284	28,62
753,597	28,67
753,911	28,73
754,225	28,76
754,538	28,86
754,852	28,91
755,165	28,89
755,478	28,83
755,792	28,91
756,105	28,97
756,418	29,09
756,731	28,97
757,045	28,99
757,358	29,02
757,671	29,07
757,984	29,25
758,297	29,18
758,609	29,4
758,922	29,38
759,235	29,44
759,548	29,53
759,86	29,41
760,173	29,13
760,486	28,97
760,798	28,89
761,111	28,79
761,423	28,7
761,735	28,69
762,048	28,72
762,36	28,61
762,672	28,64
762,984	28,6
763,296	28,81
763,608	28,99
763,92	29,12
764,232	29,24
764,544	29,24
764,856	29,29
765,168	29,28
765,48	29,34
765,791	29,42
766,103	29,48
766,414	29,72
766,726	30
767,037	30,23
767,349	30,57
767,66	30,91
767,972	31,29
768,283	31,64
768,594	31,82
768,905	32,13
769,216	32,42
769,527	32,84
769,838	32,88
770,149	32,9
770,46	33,03
770,771	33,12
771,082	33,14
771,393	33,35
771,703	33,63
772,014	33,91
772,324	34
772,635	34,05
772,945	34,08
773,256	34,26
773,566	34,53
773,877	34,58
774,187	34,66
774,497	34,77
774,807	34,75
775,117	34,83
775,427	34,93
775,737	34,91
776,047	34,91
776,357	35,21
776,667	35,35
776,977	35,5
777,287	35,77
777,596	35,93
777,906	36
778,216	35,95
778,525	36,1
778,835	36,32
779,144	35,81
779,453	35,72
779,763	35,64
780,072	35,47
780,381	35,46
780,69	35,44
781	35,46
781,309	35,52
781,618	35,72
781,927	35,91
782,235	36,13
782,544	36,16
782,853	36,12
783,162	36,21
783,471	36,12
783,779	36,02
784,088	36
784,396	36,16
784,705	36,38
785,013	36,29
785,322	36,18
785,63	36,76
785,938	36,81
786,246	36,69
786,554	36,67
786,863	36,64
787,171	36,6
787,479	36,7
787,787	36,83
788,094	36,89
788,402	36,8
788,71	36,78
789,018	36,8
789,326	36,68
789,633	36,4
789,941	36,31
790,248	36,34
790,556	36,57
790,863	36,57
791,171	36,41
791,478	36,45
791,785	36,65
792,092	36,7
792,399	36,76
792,707	36,94
793,014	36,96
793,321	37,13
793,628	37,19
793,934	37,08
794,241	36,95
794,548	36,88
794,855	36,77
795,161	36,77
795,468	36,7
795,775	36,85
796,081	37,22
796,388	37,52
796,694	37,51
797	37,34
797,307	37,37
797,613	37,42
797,919	37,35
798,225	37,33
798,531	37,51
798,837	37,51
799,143	37,7
799,449	37,95
799,755	38,2
800,061	38,35
800,367	38,55
800,672	38,65
800,978	38,76
801,284	38,9
801,589	38,91
801,895	38,94
802,2	39,02
802,506	38,94
802,811	38,76
803,116	38,96
803,421	39,31
803,727	39,13
804,032	39,04
804,337	39,06
804,642	39,15
804,947	39,19
805,252	39,36
805,556	39,71
805,861	40
806,166	39,91
806,471	40,23
806,775	40,4
807,08	40,52
807,384	40,57
807,689	40,7
807,993	40,84
808,298	41,19
808,602	41,38
808,906	41,57
809,211	41,82
809,515	41,85
809,819	41,93
810,123	42,44
810,427	42,95
810,731	43,04
811,035	43,04
811,338	42,95
811,642	43
811,946	42,78
812,25	42,61
812,553	42,72
812,857	42,4
813,16	42,15
813,464	41,99
813,767	42,25
814,07	42,31
814,374	42,11
814,677	41,85
814,98	41,64
815,283	41,5
815,586	41,45
815,889	41,11
816,192	40,89
816,495	40,46
816,798	39,93
817,101	39,79
817,404	39,38
817,706	38,98
818,009	38,62
818,312	38
818,614	37,25
818,917	36,03
819,219	34,54
819,521	33,21
819,824	32,02
820,126	30,9
820,428	30,13
820,73	29,74
821,032	29,35
821,334	29,1
821,636	28,96
821,938	28,82
822,24	28,73
822,542	28,68
822,844	28,74
823,145	28,77
823,447	28,7
823,749	28,67
824,05	28,59
824,352	28,52
824,653	28,5
824,955	28,5
825,256	28,52
825,557	28,63
825,858	28,83
826,16	29,11
826,461	29,52
826,762	29,99
827,063	30,36
827,364	30,88
827,665	31,33
827,965	31,68
828,266	32
828,567	32,37
828,868	32,58
829,168	32,68
829,469	32,77
829,769	33,12
830,07	33,36
830,37	33,78
830,67	34,16
830,971	34,43
831,271	34,53
831,571	34,79
831,871	34,98
832,171	35,03
832,471	35,15
832,771	35,16
833,071	35,16
833,371	35,19
833,671	35,12
833,971	35,08
834,27	35,07
834,57	35,16
834,869	35,34
835,169	35,48
835,468	35,54
835,768	35,59
836,067	35,44
836,367	35,65
836,666	35,97
836,965	36,38
837,264	36,95
837,563	37,74
837,862	38,44
838,161	39,13
838,46	40,01
838,759	40,68
839,058	41,25
839,356	41,97
839,655	42,41
839,954	43,1
840,252	43,8
840,551	44,44
840,849	44,99
841,148	45,31
841,446	45,42
841,744	45,63
842,043	46,2
842,341	46,84
842,639	47,04
842,937	46,96
843,235	47
843,533	47,28
843,831	47,86
844,129	49,16
844,427	50,4
844,724	51,33
845,022	52,54
845,32	54,26
845,617	55,37
845,915	56,27
846,212	56,48
846,51	56,9
846,807	57,46
847,104	57,81
847,402	57,94
847,699	58,62
847,996	59
848,293	59,21
848,59	60,1
848,887	60,46
849,184	60,82
849,481	61,41
849,778	61,48
850,074	61,52
850,371	61,24
850,668	60,95
850,964	60,34
851,261	59,49
851,557	58,49
851,854	58,16
852,15	58,23
852,446	58,88
852,743	59,62
853,039	60,02
853,335	60,36
853,631	60,68
853,927	61,14
854,223	61,32
854,519	61,99
854,815	62,1
855,111	62,26
855,406	62,51
855,702	62,26
855,998	62
856,293	61,66
856,589	61,44
856,884	61,15
857,18	60,85
857,475	60,98
857,77	60,62
858,066	60,75
858,361	61,15
858,656	61,06
858,951	60,33
859,246	60,21
859,541	60,35
859,836	60,07
860,131	59,65
860,426	59,38
860,72	59,13
861,015	58,9
861,31	59,02
861,604	59,38
861,899	60,13
862,193	61,11
862,487	61,31
862,782	60,62
863,076	60,85
863,37	61,98
863,664	62,71
863,959	63,38
864,253	63,08
864,547	62,97
864,841	63,11
865,135	63,7
865,428	63,85
865,722	63,87
866,016	64,1
866,31	63,74
866,603	63,66
866,897	63,05
867,19	62,42
867,484	62,19
867,777	61,43
868,07	61,15
868,364	60,37
868,657	59,71
868,95	59,73
869,243	59,45
869,536	59,24
869,829	59,17
870,122	58,88
870,415	58,62
870,708	58,29
871	57,91
871,293	57,14
871,586	56,49
871,878	55,83
872,171	55,34
872,463	55,41
872,756	55,59
873,048	54,95
873,341	54,84
873,633	54,46
873,925	54,84
874,217	54,32
874,509	54,11
874,801	54,78
875,093	55,42
875,385	55,47
875,677	54,23
875,969	53,38
