Data from zc74010_4_Reflection_00004.txt Node
Date: Thu Mar 12 15:01:26 ART 2020
User: Ana
Spectrometer: USB2E3644
Trigger mode: 4
Integration Time (sec): 5,000000E-2
Scans to average: 10
Electric dark correction enabled: true
Nonlinearity correction enabled: false
Boxcar width: 10
XAxis mode: Wavelengths
Number of Pixels in Spectrum: 2048
>>>>>Begin Spectral Data<<<<<
178,315	102,97
178,696	106,2
179,076	116,32
179,457	114,61
179,838	134,76
180,218	182,96
180,599	772,22
180,979	41,94
181,36	343,06
181,74	180,25
182,121	125,42
182,501	104,06
182,881	98,48
183,262	98,75
183,642	100,45
184,022	98,7
184,402	97,2
184,783	95,56
185,163	93,29
185,543	94,64
185,923	95,17
186,303	94,2
186,683	92,12
187,063	92,35
187,443	93,93
187,823	96,84
188,203	99,14
188,583	99,82
188,963	99
189,343	97,3
189,723	98,33
190,102	102,31
190,482	107,5
190,862	110,49
191,242	112,74
191,621	114,06
192,001	116,08
192,38	117,61
192,76	118,16
193,14	119,25
193,519	120,09
193,898	122,55
194,278	124,95
194,657	127,42
195,037	127,27
195,416	123,09
195,795	119,73
196,175	117,67
196,554	116,48
196,933	115,92
197,312	115,98
197,692	115,68
198,071	115,14
198,45	115,54
198,829	116,1
199,208	117,27
199,587	117,36
199,966	116,72
200,345	115,82
200,724	115,88
201,103	116,35
201,482	116,82
201,86	116,31
202,239	114,33
202,618	113,32
202,997	114,73
203,375	117,68
203,754	120,08
204,133	121,56
204,511	121,45
204,89	121,8
205,269	122,15
205,647	121,33
206,026	120,59
206,404	120,71
206,782	119,94
207,161	118,58
207,539	117,77
207,918	118
208,296	118,72
208,674	119,16
209,052	119,96
209,431	120,44
209,809	120,73
210,187	121,86
210,565	122,38
210,943	121,48
211,321	120,47
211,699	120,25
212,077	120,29
212,455	120,8
212,833	121,22
213,211	121,2
213,589	122,14
213,967	122,67
214,345	121,6
214,722	122,62
215,1	123,25
215,478	123,19
215,855	123,31
216,233	123,57
216,611	124,38
216,988	123,42
217,366	121,81
217,743	121,34
218,121	122,11
218,498	123,62
218,876	124,58
219,253	124,15
219,631	123,37
220,008	122,83
220,385	122,74
220,762	121,7
221,14	120,36
221,517	118,78
221,894	117,79
222,271	116,92
222,648	115,37
223,025	113,88
223,402	113,39
223,78	113,07
224,157	112,4
224,533	111,12
224,91	111,56
225,287	113,69
225,664	115,93
226,041	116,88
226,418	116,83
226,795	116,94
227,171	117,72
227,548	118,71
227,925	119,29
228,301	120,82
228,678	123
229,055	125,63
229,431	127,91
229,808	129,65
230,184	131,4
230,561	133,76
230,937	136,92
231,313	139,19
231,69	140,72
232,066	143,29
232,442	145,31
232,819	145,6
233,195	144,06
233,571	142,86
233,947	144,4
234,323	147,01
234,699	149,27
235,075	151,84
235,451	154,39
235,827	157,05
236,203	158,73
236,579	160,02
236,955	163,19
237,331	171,23
237,707	182,49
238,083	196,51
238,459	213,26
238,834	240,3
239,21	284,28
239,586	342,98
239,961	407,62
240,337	479,68
240,713	547,23
241,088	626,45
241,464	726,38
241,839	856,11
242,215	1134,36
242,59	2653,4
242,965	-1622,71
243,341	-460,84
243,716	-248,02
244,091	-176,12
244,467	-144,87
244,842	-127,56
245,217	-115,88
245,592	-110,15
245,967	-109,41
246,343	-106,49
246,718	-104,81
247,093	-106,66
247,468	-109,18
247,843	-108,55
248,218	-103,56
248,593	-95,68
248,967	-87,38
249,342	-82,64
249,717	-79,92
250,092	-78,55
250,467	-79,68
250,841	-84,78
251,216	-96,65
251,591	-116,89
251,965	-140,27
252,34	-159,5
252,714	-179,41
253,089	-193,24
253,463	-203,17
253,838	-200,52
254,212	-194,56
254,587	-182,88
254,961	-160,43
255,335	-135,23
255,71	-111,21
256,084	-86,41
256,458	-68,58
256,832	-58,1
257,206	-52,01
257,581	-48,77
257,955	-46,67
258,329	-44,24
258,703	-41,73
259,077	-39,76
259,451	-37,76
259,825	-36,89
260,199	-36,79
260,572	-36,11
260,946	-36,04
261,32	-35,46
261,694	-34,9
262,068	-34,86
262,441	-34,71
262,815	-34,98
263,189	-35,07
263,562	-35,64
263,936	-38,11
264,309	-41,97
264,683	-46,06
265,056	-48,34
265,43	-49,45
265,803	-49,58
266,176	-49,14
266,55	-48,91
266,923	-48,32
267,296	-47,67
267,67	-45,64
268,043	-43,69
268,416	-41,32
268,789	-38,54
269,162	-35,88
269,535	-33,35
269,908	-31,43
270,281	-30,49
270,654	-30,3
271,027	-30,7
271,4	-31,17
271,773	-31,15
272,146	-31,11
272,519	-31,07
272,891	-31,01
273,264	-30,9
273,637	-30,63
274,01	-30,5
274,382	-31,01
274,755	-31,27
275,127	-31,46
275,5	-32,02
275,872	-32,28
276,245	-32,72
276,617	-33,74
276,99	-34,62
277,362	-35,82
277,734	-36,62
278,107	-36,55
278,479	-36,09
278,851	-35,25
279,223	-34,39
279,596	-33,65
279,968	-33,24
280,34	-32,6
280,712	-31,95
281,084	-30,63
281,456	-29,36
281,828	-28,22
282,2	-26,3
282,572	-24,57
282,944	-23,35
283,315	-22,53
283,687	-21,76
284,059	-21,18
284,431	-20,55
284,802	-19,78
285,174	-19,07
285,546	-18,32
285,917	-17,59
286,289	-17,02
286,66	-16,77
287,032	-16,39
287,403	-16,19
287,775	-16,13
288,146	-16,3
288,518	-16,59
288,889	-16,66
289,26	-16,66
289,632	-16,87
290,003	-17,24
290,374	-17,52
290,745	-17,57
291,116	-17,43
291,487	-17,31
291,858	-17,05
292,229	-16,77
292,6	-16,42
292,971	-15,72
293,342	-15,11
293,713	-14,39
294,084	-13,66
294,455	-12,65
294,826	-12,06
295,196	-11,77
295,567	-11,61
295,938	-11,15
296,308	-10,72
296,679	-10,54
297,05	-10,35
297,42	-9,94
297,791	-9,49
298,161	-9,28
298,532	-8,96
298,902	-8,68
299,272	-8,45
299,643	-8,35
300,013	-8,12
300,383	-7,89
300,754	-7,81
301,124	-7,73
301,494	-7,85
301,864	-8,05
302,234	-8,38
302,604	-8,49
302,974	-8,25
303,344	-7,85
303,714	-7,57
304,084	-7,07
304,454	-6,57
304,824	-6,08
305,194	-5,85
305,563	-5,75
305,933	-5,44
306,303	-5,07
306,673	-4,6
307,042	-3,99
307,412	-3,2
307,781	-2,46
308,151	-2,01
308,521	-1,79
308,89	-1,6
309,259	-1,47
309,629	-1,22
309,998	-0,97
310,368	-0,82
310,737	-0,72
311,106	-0,56
311,475	-0,33
311,845	-0,3
312,214	-0,13
312,583	0,05
312,952	0,24
313,321	0,53
313,69	0,93
314,059	1,24
314,428	1,4
314,797	1,37
315,166	1,22
315,535	0,99
315,904	0,78
316,272	0,69
316,641	0,58
317,01	0,71
317,379	0,88
317,747	0,99
318,116	1,27
318,484	1,4
318,853	1,46
319,221	1,5
319,59	1,55
319,958	1,59
320,327	1,6
320,695	1,73
321,063	1,98
321,432	2,15
321,8	2,28
322,168	2,44
322,536	2,52
322,905	2,87
323,273	3,33
323,641	3,81
324,009	4,27
324,377	4,53
324,745	4,73
325,113	5,05
325,481	5,48
325,849	5,75
326,216	6,08
326,584	6,36
326,952	6,58
327,32	6,93
327,687	7,22
328,055	7,51
328,423	7,8
328,79	7,93
329,158	8,01
329,525	8,14
329,893	8,39
330,26	8,75
330,628	8,92
330,995	9,02
331,362	9
331,73	8,97
332,097	9,22
332,464	9,52
332,831	9,7
333,199	9,72
333,566	9,94
333,933	10,15
334,3	10,38
334,667	10,55
335,034	10,72
335,401	10,83
335,768	10,99
336,135	11,08
336,502	11,23
336,868	11,37
337,235	11,4
337,602	11,49
337,969	11,64
338,335	11,8
338,702	11,97
339,069	12,16
339,435	12,32
339,802	12,49
340,168	12,54
340,535	12,59
340,901	12,68
341,267	12,67
341,634	12,79
342	12,96
342,366	13,14
342,733	13,2
343,099	13,38
343,465	13,49
343,831	13,67
344,197	13,78
344,563	13,89
344,929	14,07
345,295	14,21
345,661	14,28
346,027	14,34
346,393	14,36
346,759	14,44
347,125	14,56
347,491	14,65
347,856	14,77
348,222	14,84
348,588	14,95
348,953	15,08
349,319	15,12
349,684	15,17
350,05	15,22
350,415	15,29
350,781	15,35
351,146	15,46
351,512	15,57
351,877	15,68
352,242	15,79
352,608	15,89
352,973	16,08
353,338	16,22
353,703	16,36
354,068	16,44
354,433	16,54
354,798	16,7
355,164	16,9
355,528	17,03
355,893	17,14
356,258	17,25
356,623	17,41
356,988	17,58
357,353	17,7
357,718	17,79
358,082	17,89
358,447	17,98
358,812	18,06
359,176	18,09
359,541	18,21
359,905	18,29
360,27	18,4
360,634	18,38
360,999	18,45
361,363	18,57
361,728	18,77
362,092	18,91
362,456	18,95
362,821	18,95
363,185	18,99
363,549	19,12
363,913	19,21
364,277	19,25
364,641	19,26
365,005	19,36
365,369	19,47
365,733	19,58
366,097	19,69
366,461	19,79
366,825	19,87
367,189	19,9
367,553	20,01
367,916	20,17
368,28	20,34
368,644	20,44
369,007	20,51
369,371	20,58
369,734	20,67
370,098	20,77
370,461	20,89
370,825	20,99
371,188	21,1
371,552	21,16
371,915	21,28
372,278	21,44
372,642	21,52
373,005	21,67
373,368	21,82
373,731	21,92
374,094	22,05
374,457	22,18
374,82	22,3
375,183	22,33
375,546	22,34
375,909	22,4
376,272	22,53
376,635	22,64
376,998	22,71
377,361	22,8
377,723	22,92
378,086	22,98
378,449	23,08
378,811	23,14
379,174	23,22
379,537	23,28
379,899	23,27
380,262	23,42
380,624	23,43
380,987	23,5
381,349	23,62
381,711	23,68
382,074	23,78
382,436	23,86
382,798	24,06
383,16	24,12
383,522	24,19
383,884	24,23
384,247	24,31
384,609	24,4
384,971	24,43
385,333	24,46
385,695	24,48
386,056	24,5
386,418	24,47
386,78	24,57
387,142	24,63
387,504	24,7
387,865	24,62
388,227	24,69
388,589	24,73
388,95	24,76
389,312	24,76
389,673	24,83
390,035	24,85
390,396	24,89
390,758	24,93
391,119	24,97
391,48	24,99
391,842	25,04
392,203	25,05
392,564	25,1
392,925	25,15
393,286	25,23
393,648	25,23
394,009	25,34
394,37	25,36
394,731	25,41
395,092	25,44
395,452	25,53
395,813	25,58
396,174	25,61
396,535	25,64
396,896	25,69
397,257	25,72
397,617	25,8
397,978	25,83
398,338	25,87
398,699	25,92
399,06	26
399,42	25,99
399,781	26,01
400,141	26,07
400,501	26,11
400,862	26,17
401,222	26,31
401,582	26,34
401,943	26,36
402,303	26,35
402,663	26,42
403,023	26,47
403,383	26,47
403,743	26,5
404,103	26,49
404,463	26,53
404,823	26,56
405,183	26,61
405,543	26,61
405,903	26,66
406,262	26,69
406,622	26,66
406,982	26,73
407,342	26,82
407,701	26,83
408,061	26,83
408,42	26,81
408,78	26,82
409,139	26,85
409,499	26,92
409,858	26,96
410,217	27
410,577	27
410,936	27,06
411,295	27,07
411,655	27,11
412,014	27,14
412,373	27,11
412,732	27,08
413,091	27,07
413,45	27,09
413,809	27,08
414,168	27,08
414,527	27,05
414,886	27
415,245	26,98
415,603	26,99
415,962	26,99
416,321	26,97
416,679	26,96
417,038	26,9
417,397	26,91
417,755	26,88
418,114	26,88
418,472	26,87
418,831	26,89
419,189	26,88
419,547	26,88
419,906	26,87
420,264	26,86
420,622	26,85
420,981	26,86
421,339	26,87
421,697	26,89
422,055	26,91
422,413	26,93
422,771	26,96
423,129	26,99
423,487	27,01
423,845	27,04
424,203	27,07
424,56	27,13
424,918	27,15
425,276	27,21
425,634	27,25
425,991	27,3
426,349	27,34
426,707	27,39
427,064	27,4
427,422	27,46
427,779	27,55
428,137	27,62
428,494	27,67
428,851	27,72
429,209	27,76
429,566	27,76
429,923	27,8
430,28	27,82
430,637	27,83
430,995	27,83
431,352	27,82
431,709	27,87
432,066	27,86
432,423	27,9
432,78	27,9
433,137	27,9
433,493	27,88
433,85	27,9
434,207	27,89
434,564	27,93
434,92	27,94
435,277	27,92
435,634	27,92
435,99	27,93
436,347	27,94
436,703	27,96
437,06	27,99
437,416	28,01
437,773	28,02
438,129	28,02
438,485	28,07
438,841	28,09
439,198	28,08
439,554	28,09
439,91	28,1
440,266	28,13
440,622	28,14
440,978	28,18
441,334	28,15
441,69	28,18
442,046	28,19
442,402	28,21
442,758	28,23
443,113	28,23
443,469	28,25
443,825	28,26
444,181	28,25
444,536	28,29
444,892	28,29
445,247	28,32
445,603	28,35
445,958	28,37
446,314	28,37
446,669	28,39
447,025	28,41
447,38	28,42
447,735	28,42
448,09	28,43
448,446	28,43
448,801	28,46
449,156	28,46
449,511	28,47
449,866	28,5
450,221	28,55
450,576	28,62
450,931	28,67
451,286	28,73
451,641	28,81
451,995	28,84
452,35	28,87
452,705	28,9
453,06	28,88
453,414	28,91
453,769	28,92
454,123	28,91
454,478	28,94
454,832	28,99
455,187	28,98
455,541	28,98
455,896	29,01
456,25	29,03
456,604	29,06
456,958	29,09
457,313	29,09
457,667	29,09
458,021	29,09
458,375	29,1
458,729	29,1
459,083	29,11
459,437	29,11
459,791	29,15
460,145	29,18
460,499	29,22
460,852	29,22
461,206	29,24
461,56	29,26
461,914	29,26
462,267	29,24
462,621	29,27
462,974	29,3
463,328	29,33
463,681	29,32
464,035	29,34
464,388	29,34
464,742	29,37
465,095	29,38
465,448	29,39
465,801	29,4
466,155	29,4
466,508	29,38
466,861	29,38
467,214	29,36
467,567	29,34
467,92	29,35
468,273	29,36
468,626	29,38
468,979	29,39
469,332	29,39
469,684	29,39
470,037	29,42
470,39	29,43
470,743	29,43
471,095	29,5
471,448	29,48
471,8	29,5
472,153	29,51
472,505	29,55
472,858	29,58
473,21	29,56
473,562	29,55
473,915	29,6
474,267	29,63
474,619	29,65
474,971	29,65
475,324	29,65
475,676	29,67
476,028	29,64
476,38	29,69
476,732	29,71
477,084	29,74
477,436	29,69
477,787	29,7
478,139	29,72
478,491	29,7
478,843	29,72
479,195	29,73
479,546	29,7
479,898	29,68
480,249	29,73
480,601	29,83
480,952	29,88
481,304	29,9
481,655	29,9
482,007	29,92
482,358	29,94
482,709	29,93
483,061	29,91
483,412	29,91
483,763	29,89
484,114	29,89
484,465	29,9
484,816	29,92
485,167	29,94
485,518	29,94
485,869	29,96
486,22	29,97
486,571	29,96
486,922	29,99
487,272	30
487,623	29,98
487,974	29,93
488,324	29,92
488,675	29,9
489,025	29,91
489,376	29,91
489,726	29,9
490,077	29,94
490,427	29,97
490,778	29,99
491,128	30,01
491,478	30,02
491,828	30,03
492,179	30,05
492,529	30,02
492,879	30,02
493,229	30,03
493,579	30,04
493,929	30,07
494,279	30,11
494,629	30,13
494,979	30,18
495,328	30,23
495,678	30,26
496,028	30,3
496,378	30,32
496,727	30,34
497,077	30,39
497,426	30,4
497,776	30,37
498,125	30,37
498,475	30,38
498,824	30,42
499,174	30,44
499,523	30,47
499,872	30,49
500,221	30,52
500,571	30,55
500,92	30,51
501,269	30,54
501,618	30,52
501,967	30,55
502,316	30,55
502,665	30,56
503,014	30,54
503,363	30,55
503,711	30,56
504,06	30,56
504,409	30,54
504,758	30,52
505,106	30,55
505,455	30,56
505,803	30,58
506,152	30,54
506,5	30,54
506,849	30,55
507,197	30,55
507,546	30,57
507,894	30,57
508,242	30,62
508,59	30,6
508,939	30,61
509,287	30,62
509,635	30,61
509,983	30,62
510,331	30,63
510,679	30,66
511,027	30,66
511,375	30,65
511,723	30,64
512,07	30,65
512,418	30,68
512,766	30,68
513,114	30,71
513,461	30,76
513,809	30,76
514,156	30,77
514,504	30,77
514,851	30,74
515,199	30,75
515,546	30,74
515,893	30,75
516,241	30,77
516,588	30,77
516,935	30,81
517,282	30,83
517,63	30,84
517,977	30,84
518,324	30,87
518,671	30,9
519,018	30,93
519,365	30,95
519,711	30,96
520,058	30,98
520,405	31
520,752	31,03
521,099	31,02
521,445	31,01
521,792	31,04
522,138	31,06
522,485	31,07
522,832	31,1
523,178	31,11
523,524	31,13
523,871	31,14
524,217	31,12
524,563	31,1
524,91	31,09
525,256	31,11
525,602	31,15
525,948	31,15
526,294	31,17
526,64	31,19
526,986	31,2
527,332	31,2
527,678	31,19
528,024	31,2
528,37	31,24
528,716	31,26
529,061	31,25
529,407	31,26
529,753	31,25
530,098	31,24
530,444	31,25
530,789	31,26
531,135	31,28
531,48	31,29
531,826	31,32
532,171	31,35
532,516	31,35
532,862	31,34
533,207	31,34
533,552	31,34
533,897	31,33
534,242	31,32
534,587	31,31
534,932	31,33
535,277	31,33
535,622	31,31
535,967	31,31
536,312	31,34
536,657	31,35
537,001	31,39
537,346	31,43
537,691	31,43
538,035	31,42
538,38	31,41
538,724	31,4
539,069	31,4
539,413	31,42
539,758	31,43
540,102	31,43
540,446	31,46
540,791	31,48
541,135	31,51
541,479	31,51
541,823	31,53
542,167	31,5
542,512	31,49
542,856	31,47
543,2	31,48
543,543	31,49
543,887	31,49
544,231	31,5
544,575	31,5
544,919	31,53
545,262	31,54
545,606	31,56
545,95	31,58
546,293	31,58
546,637	31,59
546,98	31,58
547,324	31,59
547,667	31,59
548,011	31,57
548,354	31,56
548,697	31,56
549,04	31,56
549,384	31,58
549,727	31,6
550,07	31,64
550,413	31,63
550,756	31,64
551,099	31,63
551,442	31,61
551,785	31,63
552,128	31,64
552,47	31,63
552,813	31,61
553,156	31,62
553,499	31,61
553,841	31,62
554,184	31,63
554,526	31,61
554,869	31,61
555,211	31,57
555,554	31,56
555,896	31,57
556,238	31,59
556,581	31,61
556,923	31,59
557,265	31,56
557,607	31,56
557,949	31,54
558,291	31,55
558,633	31,57
558,975	31,56
559,317	31,53
559,659	31,51
560,001	31,5
560,343	31,5
560,685	31,5
561,026	31,5
561,368	31,47
561,71	31,44
562,051	31,46
562,393	31,51
562,734	31,49
563,076	31,48
563,417	31,45
563,759	31,45
564,1	31,47
564,441	31,48
564,782	31,43
565,124	31,43
565,465	31,44
565,806	31,43
566,147	31,42
566,488	31,41
566,829	31,44
567,17	31,47
567,511	31,45
567,851	31,45
568,192	31,43
568,533	31,45
568,874	31,47
569,214	31,47
569,555	31,44
569,895	31,45
570,236	31,45
570,576	31,44
570,917	31,43
571,257	31,4
571,598	31,41
571,938	31,42
572,278	31,44
572,618	31,41
572,959	31,41
573,299	31,41
573,639	31,43
573,979	31,4
574,319	31,37
574,659	31,35
574,999	31,36
575,339	31,35
575,678	31,33
576,018	31,31
576,358	31,28
576,698	31,29
577,037	31,31
577,377	31,29
577,716	31,25
578,056	31,26
578,395	31,25
578,735	31,24
579,074	31,26
579,413	31,27
579,753	31,24
580,092	31,17
580,431	31,11
580,77	31,08
581,109	31,09
581,448	31,06
581,787	31,03
582,126	31
582,465	31
582,804	30,98
583,143	30,99
583,482	30,99
583,82	30,99
584,159	30,94
584,498	30,89
584,836	30,93
585,175	30,89
585,514	30,91
585,852	30,93
586,19	30,91
586,529	30,88
586,867	30,89
587,205	30,92
587,544	30,95
587,882	30,98
588,22	30,98
588,558	31,01
588,896	31,04
589,234	31,05
589,572	31,03
589,91	31,03
590,248	31,02
590,586	31
590,924	31,02
591,262	31,04
591,599	31,06
591,937	31,08
592,275	31,08
592,612	31,06
592,95	31,07
593,287	31,08
593,625	31,08
593,962	31,13
594,299	31,18
594,637	31,22
594,974	31,21
595,311	31,23
595,648	31,22
595,985	31,25
596,322	31,27
596,659	31,29
596,996	31,3
597,333	31,3
597,67	31,3
598,007	31,27
598,344	31,23
598,681	31,26
599,017	31,25
599,354	31,25
599,691	31,27
600,027	31,26
600,364	31,28
600,7	31,32
601,037	31,33
601,373	31,32
601,71	31,32
602,046	31,41
602,382	31,43
602,718	31,47
603,054	31,49
603,391	31,48
603,727	31,45
604,063	31,47
604,399	31,5
604,735	31,53
605,071	31,52
605,406	31,58
605,742	31,58
606,078	31,57
606,414	31,58
606,749	31,61
607,085	31,65
607,421	31,64
607,756	31,67
608,092	31,63
608,427	31,64
608,762	31,62
609,098	31,53
609,433	31,49
609,768	31,48
610,104	31,44
610,439	31,43
610,774	31,47
611,109	31,48
611,444	31,47
611,779	31,44
612,114	31,43
612,449	31,43
612,784	31,39
613,118	31,38
613,453	31,39
613,788	31,36
614,123	31,26
614,457	31,24
614,792	31,18
615,126	31,17
615,461	31,17
615,795	31,16
616,13	31,16
616,464	31,15
616,798	31,11
617,132	31,09
617,467	31,08
617,801	31,07
618,135	31,02
618,469	31,02
618,803	31,05
619,137	31,09
619,471	31,04
619,805	31,04
620,139	31,09
620,472	31,08
620,806	31,08
621,14	31,11
621,473	31,1
621,807	31,05
622,141	31,04
622,474	31,02
622,808	31,05
623,141	31,1
623,474	31,13
623,808	31,15
624,141	31,21
624,474	31,27
624,807	31,26
625,141	31,31
625,474	31,31
625,807	31,33
626,14	31,3
626,473	31,37
626,806	31,43
627,138	31,4
627,471	31,39
627,804	31,42
628,137	31,43
628,469	31,43
628,802	31,48
629,135	31,49
629,467	31,51
629,8	31,51
630,132	31,52
630,465	31,55
630,797	31,57
631,129	31,52
631,461	31,49
631,794	31,48
632,126	31,47
632,458	31,49
632,79	31,47
633,122	31,48
633,454	31,45
633,786	31,43
634,118	31,4
634,45	31,44
634,781	31,38
635,113	31,38
635,445	31,38
635,777	31,39
636,108	31,43
636,44	31,4
636,771	31,34
637,103	31,32
637,434	31,25
637,765	31,2
638,097	31,22
638,428	31,2
638,759	31,17
639,09	31,14
639,422	31,14
639,753	31,11
640,084	31,09
640,415	31,08
640,746	31,06
641,077	31,1
641,407	31,07
641,738	31,09
642,069	31,12
642,4	31,13
642,73	31,08
643,061	31,04
643,392	31,06
643,722	31,09
644,053	31,13
644,383	31,12
644,713	31,13
645,044	31,15
645,374	31,19
645,704	31,22
646,034	31,27
646,365	31,23
646,695	31,32
647,025	31,35
647,355	31,34
647,685	31,37
648,015	31,39
648,344	31,45
648,674	31,5
649,004	31,48
649,334	31,48
649,663	31,54
649,993	31,61
650,323	31,62
650,652	31,63
650,982	31,59
651,311	31,61
651,64	31,67
651,97	31,66
652,299	31,66
652,628	31,71
652,958	31,68
653,287	31,81
653,616	31,71
653,945	31,75
654,274	31,79
654,603	31,78
654,932	31,79
655,261	31,72
655,589	31,71
655,918	31,77
656,247	31,83
656,576	31,87
656,904	31,83
657,233	31,87
657,561	31,9
657,89	31,95
658,218	32
658,547	32,01
658,875	32
659,203	32
659,532	31,98
659,86	31,98
660,188	31,89
660,516	31,96
660,844	31,93
661,172	31,92
661,5	31,96
661,828	31,98
662,156	32,03
662,484	32,07
662,811	32
663,139	31,93
663,467	31,91
663,794	31,87
664,122	31,85
664,45	31,85
664,777	31,85
665,104	31,89
665,432	31,81
665,759	31,79
666,086	31,85
666,414	31,83
666,741	31,88
667,068	31,93
667,395	31,95
667,722	32
668,049	32
668,376	31,98
668,703	31,95
669,03	31,99
669,357	31,96
669,683	31,97
670,01	32
670,337	31,97
670,663	32,02
670,99	32,03
671,317	32
671,643	31,95
671,969	31,92
672,296	31,94
672,622	32,04
672,948	31,99
673,275	32,03
673,601	32,03
673,927	32,01
674,253	31,99
674,579	31,99
674,905	31,92
675,231	31,9
675,557	31,88
675,883	31,86
676,209	31,84
676,534	31,92
676,86	31,9
677,186	31,93
677,511	32,01
677,837	32,03
678,162	31,98
678,488	32,02
678,813	32,05
679,139	32,07
679,464	32,09
679,789	32,09
680,114	32,08
680,44	32,1
680,765	32,1
681,09	32,14
681,415	32,07
681,74	32,12
682,065	32,17
682,39	32,19
682,714	32,17
683,039	32,15
683,364	32,12
683,689	32,13
684,013	32,14
684,338	32,05
684,662	32,04
684,987	32,06
685,311	32,05
685,636	32,04
685,96	32,09
686,284	32,04
686,608	32,01
686,933	32,01
687,257	31,98
687,581	31,97
687,905	31,9
688,229	32
688,553	32,01
688,877	31,97
689,201	32,04
689,524	32,03
689,848	32,08
690,172	32,05
690,496	32,05
690,819	32,02
691,143	32,06
691,466	32,09
691,79	32,13
692,113	32,12
692,436	32,09
692,76	31,99
693,083	31,95
693,406	31,99
693,729	31,95
694,053	31,87
694,376	31,85
694,699	31,85
695,022	31,84
695,344	31,87
695,667	32,02
695,99	32,07
696,313	32,17
696,636	32,2
696,958	32,26
697,281	32,32
697,604	32,37
697,926	32,37
698,249	32,39
698,571	32,4
698,893	32,36
699,216	32,36
699,538	32,42
699,86	32,45
700,182	32,42
700,504	32,5
700,827	32,54
701,149	32,56
701,471	32,58
701,793	32,5
702,114	32,48
702,436	32,28
702,758	32,12
703,08	32,02
703,401	31,91
703,723	31,85
704,045	31,78
704,366	31,71
704,688	31,65
705,009	31,64
705,331	31,72
705,652	31,85
705,973	31,83
706,294	31,82
706,616	31,83
706,937	31,87
707,258	31,8
707,579	31,8
707,9	31,76
708,221	31,77
708,542	31,84
708,863	31,85
709,183	31,99
709,504	32,14
709,825	32,16
710,145	32,2
710,466	32,17
710,787	32,12
711,107	32,16
711,427	32,17
711,748	32,11
712,068	32,07
712,388	31,97
712,709	32,02
713,029	32,06
713,349	32,1
713,669	32,09
713,989	32,14
714,309	32,25
714,629	32,36
714,949	32,44
715,269	32,41
715,589	32,45
715,908	32,43
716,228	32,32
716,548	32,35
716,867	32,35
717,187	32,45
717,506	32,54
717,826	32,58
718,145	32,64
718,465	32,74
718,784	32,74
719,103	32,85
719,422	32,91
719,741	32,9
720,061	32,94
720,38	33,05
720,699	33,06
721,018	33,03
721,336	33
721,655	32,99
721,974	33,12
722,293	33,16
722,612	33,23
722,93	33,37
723,249	33,35
723,567	33,42
723,886	33,54
724,204	33,61
724,523	33,69
724,841	33,77
725,159	33,81
725,477	33,97
725,796	34,07
726,114	34,15
726,432	34,26
726,75	34,34
727,068	34,38
727,386	34,51
727,704	34,63
728,022	34,72
728,339	34,86
728,657	34,88
728,975	34,91
729,292	34,97
729,61	35,04
729,928	35,23
730,245	35,33
730,562	35,44
730,88	35,52
731,197	35,62
731,514	35,69
731,832	35,77
732,149	35,76
732,466	35,82
732,783	35,94
733,1	36,09
733,417	36,12
733,734	36,18
734,051	36,16
734,368	36,2
734,684	36,3
735,001	36,39
735,318	36,5
735,634	36,61
735,951	36,71
736,268	36,86
736,584	36,9
736,9	36,94
737,217	36,94
737,533	37,04
737,849	37,16
738,166	37,18
738,482	37,33
738,798	37,55
739,114	37,64
739,43	37,66
739,746	37,57
740,062	37,6
740,378	37,8
740,693	38,03
741,009	38,23
741,325	38,36
741,641	38,4
741,956	38,52
742,272	38,61
742,587	38,71
742,903	38,76
743,218	38,78
743,533	38,88
743,849	38,93
744,164	38,89
744,479	38,76
744,794	38,84
745,109	38,81
745,424	38,76
745,739	38,75
746,054	38,79
746,369	38,88
746,684	38,94
746,999	38,92
747,313	38,97
747,628	38,88
747,943	38,65
748,257	38,67
748,572	38,7
748,886	38,77
749,201	38,85
749,515	38,79
749,829	38,77
750,144	38,82
750,458	38,94
750,772	39,06
751,086	39,09
751,4	39,26
751,714	39,21
752,028	39,19
752,342	39,21
752,656	39,27
752,97	39,38
753,284	39,47
753,597	39,5
753,911	39,51
754,225	39,52
754,538	39,66
754,852	39,67
755,165	39,75
755,478	39,86
755,792	39,92
756,105	40,11
756,418	40,31
756,731	40,36
757,045	40,25
757,358	40,34
757,671	40,48
757,984	40,43
758,297	40,52
758,609	40,5
758,922	40,51
759,235	40,45
759,548	40,36
759,86	40,22
760,173	39,99
760,486	39,95
760,798	39,78
761,111	39,76
761,423	39,75
761,735	39,66
762,048	39,63
762,36	39,62
762,672	39,59
762,984	39,71
763,296	39,8
763,608	39,93
763,92	39,9
764,232	39,92
764,544	39,99
764,856	40,09
765,168	40,32
765,48	40,57
765,791	40,68
766,103	40,84
766,414	41,05
766,726	41,44
767,037	41,62
767,349	42,05
767,66	42,42
767,972	42,76
768,283	43,07
768,594	43,26
768,905	43,35
769,216	43,43
769,527	43,42
769,838	43,67
770,149	43,84
770,46	44,05
770,771	44,21
771,082	44,38
771,393	44,58
771,703	44,67
772,014	44,69
772,324	44,83
772,635	44,82
772,945	44,88
773,256	44,88
773,566	44,94
773,877	44,95
774,187	44,98
774,497	44,97
774,807	45,15
775,117	45,18
775,427	45,34
775,737	45,52
776,047	45,58
776,357	45,43
776,667	45,44
776,977	45,44
777,287	45,64
777,596	45,76
777,906	45,77
778,216	45,82
778,525	45,86
778,835	45,9
779,144	46,2
779,453	46,51
779,763	46,76
780,072	46,87
780,381	47,08
780,69	47,17
781	47,3
781,309	47,28
781,618	47,44
781,927	47,75
782,235	47,95
782,544	48,28
782,853	48,64
783,162	48,87
783,471	49,01
783,779	49,03
784,088	48,96
784,396	48,87
784,705	48,72
785,013	48,45
785,322	48,24
785,63	48,03
785,938	47,64
786,246	47,46
786,554	47,45
786,863	47,4
787,171	47,4
787,479	47,35
787,787	47,43
788,094	47,51
788,402	47,34
788,71	47,41
789,018	47,45
789,326	47,24
789,633	46,97
789,941	46,99
790,248	47,03
790,556	47,04
790,863	47,1
791,171	47,16
791,478	47,38
791,785	47,84
792,092	48,04
792,399	48,36
792,707	48,51
793,014	48,63
793,321	48,89
793,628	49,15
793,934	49,28
794,241	49,38
794,548	49,45
794,855	49,49
795,161	49,39
795,468	49,05
795,775	49,11
796,081	49,44
796,388	49,47
796,694	49,53
797	49,52
797,307	49,78
797,613	49,83
797,919	49,9
798,225	49,89
798,531	49,89
798,837	49,94
799,143	49,9
799,449	49,85
799,755	49,68
800,061	49,56
800,367	49,62
800,672	49,7
800,978	49,75
801,284	49,73
801,589	49,79
801,895	50,17
802,2	50,28
802,506	50,45
802,811	50,72
803,116	50,93
803,421	51,06
803,727	50,88
804,032	50,96
804,337	51,01
804,642	51
804,947	50,97
805,252	50,94
805,556	51,06
805,861	51,14
806,166	51,24
806,471	51,27
806,775	51,32
807,08	51,24
807,384	51,1
807,689	51,35
807,993	51,46
808,298	51,36
808,602	51,45
808,906	51,5
809,211	51,51
809,515	51,23
809,819	51,28
810,123	51,48
810,427	51,6
810,731	51,53
811,035	51,41
811,338	51,54
811,642	51,72
811,946	51,97
812,25	52,37
812,553	52,47
812,857	52,46
813,16	52,37
813,464	52,27
813,767	52,35
814,07	52,51
814,374	52,63
814,677	53,03
814,98	53
815,283	52,79
815,586	52,42
815,889	52,43
816,192	52,33
816,495	52,29
816,798	52,15
817,101	52,03
817,404	51,9
817,706	51,56
818,009	51,05
818,312	50,07
818,614	48,85
818,917	47,23
819,219	45,71
819,521	44,43
819,824	43,25
820,126	42,28
820,428	41,55
820,73	41,1
821,032	40,63
821,334	40,43
821,636	40,29
821,938	40,28
822,24	40,23
822,542	40,2
822,844	40,2
823,145	40,17
823,447	40,17
823,749	40,17
824,05	40,11
824,352	40,07
824,653	40,07
824,955	40,08
825,256	40,23
825,557	40,47
825,858	40,72
826,16	41,13
826,461	41,63
826,762	42,1
827,063	42,55
827,364	43,03
827,665	43,36
827,965	43,76
828,266	44,05
828,567	44,32
828,868	44,58
829,168	44,73
829,469	44,88
829,769	45,01
830,07	45,14
830,37	45,48
830,67	45,77
830,971	46,08
831,271	46,46
831,571	46,46
831,871	46,43
832,171	46,49
832,471	46,49
832,771	46,57
833,071	46,46
833,371	46,46
833,671	46,61
833,971	46,74
834,27	46,6
834,57	46,81
834,869	47,1
835,169	47,4
835,468	47,54
835,768	47,8
836,067	48,01
836,367	48,16
836,666	48,33
836,965	48,68
837,264	49,25
837,563	49,88
837,862	50,98
838,161	51,81
838,46	52,27
838,759	52,66
839,058	52,95
839,356	53,66
839,655	53,92
839,954	54,1
840,252	54,7
840,551	55,65
840,849	55,98
841,148	56,11
841,446	55,98
841,744	56,03
842,043	56,16
842,341	56,25
842,639	56,54
842,937	56,9
843,235	56,94
843,533	56,98
843,831	57,47
844,129	58,17
844,427	59,11
844,724	60,3
845,022	61,47
845,32	62,44
845,617	63,33
845,915	64,52
846,212	65,66
846,51	66,13
846,807	66,65
847,104	67,12
847,402	67,44
847,699	68,04
847,996	68,45
848,293	68,95
848,59	69,55
848,887	69,92
849,184	70,01
849,481	70,78
849,778	71,3
850,074	71,14
850,371	70,43
850,668	69,39
850,964	68,32
851,261	67,62
851,557	67,58
851,854	67,46
852,15	67,2
852,446	67,27
852,743	67,18
853,039	67,28
853,335	67,08
853,631	67,34
853,927	67,19
854,223	67,04
854,519	66,71
854,815	66,41
855,111	66,27
855,406	66,35
855,702	66,55
855,998	67,08
856,293	67,73
856,589	68,52
856,884	69,41
857,18	70,43
857,475	71,35
857,77	71,85
858,066	71,97
858,361	71,96
858,656	71,86
858,951	71,96
859,246	71,81
859,541	71,23
859,836	70,72
860,131	70,24
860,426	70,03
860,72	70,22
861,015	70,86
861,31	71,27
861,604	71,56
861,899	71,57
862,193	71,53
862,487	71,65
862,782	71,71
863,076	71,49
863,37	71,58
863,664	71,07
863,959	70,08
864,253	70
864,547	70,02
864,841	69,86
865,135	69,99
865,428	69,96
865,722	70,66
866,016	71,22
866,31	71,47
866,603	71,65
866,897	71,83
867,19	71,31
867,484	70,86
867,777	70,56
868,07	70,23
868,364	69,97
868,657	69,63
868,95	69,53
869,243	69,68
869,536	69,34
869,829	69,58
870,122	70,38
870,415	69,94
870,708	70,07
871	70,52
871,293	70,77
871,586	70,84
871,878	70,7
872,171	71,08
872,463	72,6
872,756	73,42
873,048	73,52
873,341	73,75
873,633	74
873,925	74,33
874,217	74,54
874,509	74,53
874,801	74,37
875,093	74,7
875,385	75,19
875,677	76,21
875,969	76,76
