Data from zc74010_2_Reflection_00001.txt Node
Date: Thu Mar 12 14:59:36 ART 2020
User: Ana
Spectrometer: USB2E3644
Trigger mode: 4
Integration Time (sec): 5,000000E-2
Scans to average: 10
Electric dark correction enabled: true
Nonlinearity correction enabled: false
Boxcar width: 10
XAxis mode: Wavelengths
Number of Pixels in Spectrum: 2048
>>>>>Begin Spectral Data<<<<<
178,315	95,79
178,696	95,35
179,076	92,82
179,457	82,72
179,838	85,71
180,218	115,56
180,599	666,67
180,979	90,32
181,36	266,67
181,74	146,3
182,121	117,5
182,501	103,29
182,881	98,93
183,262	98,23
183,642	96,93
184,022	95,27
184,402	95,87
184,783	97,01
185,163	98,11
185,543	100,51
185,923	103,16
186,303	104,21
186,683	104,52
187,063	106,56
187,443	108,6
187,823	110,05
188,203	111,21
188,583	112,69
188,963	110,95
189,343	109,38
189,723	110,02
190,102	114,26
190,482	119,73
190,862	121,86
191,242	122,06
191,621	122,12
192,001	123,1
192,38	124,31
192,76	122,8
193,14	121,99
193,519	120,86
193,898	120
194,278	119,35
194,657	120,09
195,037	119,59
195,416	117,27
195,795	117,08
196,175	117,01
196,554	116,46
196,933	116,38
197,312	116,78
197,692	116,82
198,071	115,58
198,45	114,75
198,829	115,09
199,208	116,7
199,587	117,56
199,966	117,35
200,345	116,01
200,724	116,18
201,103	116,86
201,482	117,43
201,86	117,22
202,239	114,82
202,618	113,31
202,997	113,42
203,375	114,63
203,754	114,99
204,133	115,55
204,511	115,77
204,89	115,86
205,269	115,39
205,647	114,64
206,026	113,95
206,404	113,83
206,782	113,41
207,161	112,54
207,539	111,64
207,918	111,46
208,296	112,74
208,674	113,29
209,052	113,39
209,431	113,68
209,809	114,29
210,187	116,05
210,565	116,87
210,943	116,31
211,321	115,6
211,699	116,27
212,077	116,7
212,455	116,67
212,833	117,24
213,211	117,74
213,589	118,29
213,967	118,01
214,345	117,2
214,722	117,86
215,1	118,58
215,478	119,29
215,855	120,16
216,233	120,02
216,611	120,3
216,988	120,26
217,366	119,5
217,743	119,84
218,121	121,06
218,498	122,43
218,876	122,69
219,253	122,06
219,631	119,93
220,008	117,64
220,385	116,87
220,762	115,96
221,14	114,49
221,517	113,32
221,894	113,47
222,271	113,28
222,648	112
223,025	110,05
223,402	108,74
223,78	108,04
224,157	107,8
224,533	107,57
224,91	108,08
225,287	109,94
225,664	111,26
226,041	111,35
226,418	110,74
226,795	110,81
227,171	110,95
227,548	112,73
227,925	115,05
228,301	117,01
228,678	118,71
229,055	120,63
229,431	122,64
229,808	124,79
230,184	126,61
230,561	128,62
230,937	131,43
231,313	132,79
231,69	133,46
232,066	134,79
232,442	135,86
232,819	136,12
233,195	134,9
233,571	134,61
233,947	137
234,323	139,39
234,699	140,92
235,075	142,53
235,451	143,6
235,827	145,78
236,203	146,58
236,579	148,5
236,955	153,49
237,331	161,8
237,707	171,77
238,083	183,71
238,459	200
238,834	226,78
239,21	270,32
239,586	328,53
239,961	390,79
240,337	460
240,713	523,58
241,088	599,5
241,464	693,71
241,839	816,67
242,215	1091,23
242,59	2581,63
242,965	-1592,5
243,341	-454,77
243,716	-246,07
244,091	-177,06
244,467	-146,09
244,842	-128,14
245,217	-116,5
245,592	-110,75
245,967	-110,08
246,343	-106,47
246,718	-104,05
247,093	-105,89
247,468	-108,39
247,843	-108,45
248,218	-104,54
248,593	-97,91
248,967	-90,45
249,342	-85,84
249,717	-83,17
250,092	-81,63
250,467	-82,8
250,841	-88,58
251,216	-101,6
251,591	-123,3
251,965	-147,94
252,34	-167,19
252,714	-187,87
253,089	-202,05
253,463	-210,74
253,838	-206,94
254,212	-201,93
254,587	-192,56
254,961	-171,56
255,335	-146,36
255,71	-120,84
256,084	-93,89
256,458	-74,65
256,832	-63,24
257,206	-57,09
257,581	-53,71
257,955	-51,47
258,329	-48,79
258,703	-46,1
259,077	-44,01
259,451	-41,99
259,825	-40,92
260,199	-40,94
260,572	-40,16
260,946	-40,02
261,32	-39,9
261,694	-39,54
262,068	-39,31
262,441	-38,87
262,815	-38,8
263,189	-38,72
263,562	-39,43
263,936	-42,03
264,309	-45,65
264,683	-49,87
265,056	-52,27
265,43	-53,56
265,803	-53,52
266,176	-53,07
266,55	-52,64
266,923	-51,55
267,296	-50,34
267,67	-48,18
268,043	-45,92
268,416	-43,37
268,789	-40,55
269,162	-37,75
269,535	-35,53
269,908	-33,81
270,281	-32,7
270,654	-32,44
271,027	-32,68
271,4	-32,88
271,773	-32,93
272,146	-33,24
272,519	-33,19
272,891	-33,06
273,264	-33,14
273,637	-33,37
274,01	-33,53
274,382	-34,29
274,755	-34,76
275,127	-34,97
275,5	-35,25
275,872	-35,22
276,245	-35,16
276,617	-35,75
276,99	-36,52
277,362	-37,66
277,734	-38,31
278,107	-38,2
278,479	-37,72
278,851	-36,96
279,223	-36,22
279,596	-35,58
279,968	-35,04
280,34	-34,14
280,712	-33,27
281,084	-31,58
281,456	-29,81
281,828	-28,24
282,2	-25,94
282,572	-24,11
282,944	-22,81
283,315	-22,03
283,687	-21,33
284,059	-20,98
284,431	-20,57
284,802	-19,9
285,174	-19,38
285,546	-18,81
285,917	-18,19
286,289	-17,57
286,66	-17,3
287,032	-16,85
287,403	-16,5
287,775	-16,26
288,146	-16,34
288,518	-16,37
288,889	-16,33
289,26	-16,3
289,632	-16,57
290,003	-17,1
290,374	-17,6
290,745	-18
291,116	-18,26
291,487	-18,59
291,858	-18,72
292,229	-18,63
292,6	-18,49
292,971	-17,78
293,342	-17,13
293,713	-16,48
294,084	-15,87
294,455	-14,92
294,826	-14,45
295,196	-14,33
295,567	-14,46
295,938	-14,36
296,308	-14,31
296,679	-14,21
297,05	-14,15
297,42	-13,82
297,791	-13,48
298,161	-13,36
298,532	-12,95
298,902	-12,47
299,272	-12,13
299,643	-11,92
300,013	-11,66
300,383	-11,55
300,754	-11,8
301,124	-12,2
301,494	-12,62
301,864	-13,01
302,234	-13,56
302,604	-13,82
302,974	-13,72
303,344	-13,41
303,714	-13,17
304,084	-12,89
304,454	-12,9
304,824	-12,85
305,194	-12,8
305,563	-12,73
305,933	-12,48
306,303	-12,32
306,673	-12,04
307,042	-11,52
307,412	-10,88
307,781	-10,24
308,151	-9,85
308,521	-9,47
308,89	-9,12
309,259	-9,03
309,629	-8,95
309,998	-8,88
310,368	-8,88
310,737	-8,78
311,106	-8,65
311,475	-8,53
311,845	-8,54
312,214	-8,32
312,583	-8,15
312,952	-8,1
313,321	-7,97
313,69	-7,73
314,059	-7,57
314,428	-7,63
314,797	-7,84
315,166	-8,24
315,535	-8,79
315,904	-9,19
316,272	-9,41
316,641	-9,58
317,01	-9,55
317,379	-9,46
317,747	-9,19
318,116	-8,83
318,484	-8,7
318,853	-8,6
319,221	-8,45
319,59	-8,4
319,958	-8,43
320,327	-8,41
320,695	-8,3
321,063	-8,16
321,432	-7,98
321,8	-7,8
322,168	-7,69
322,536	-7,65
322,905	-7,29
323,273	-6,87
323,641	-6,44
324,009	-6,11
324,377	-5,92
324,745	-5,67
325,113	-5,31
325,481	-5
325,849	-4,74
326,216	-4,48
326,584	-4,26
326,952	-4,07
327,32	-3,76
327,687	-3,44
328,055	-3,11
328,423	-2,89
328,79	-2,8
329,158	-2,83
329,525	-2,86
329,893	-2,8
330,26	-2,66
330,628	-2,62
330,995	-2,61
331,362	-2,66
331,73	-2,65
332,097	-2,55
332,464	-2,37
332,831	-2,28
333,199	-2,31
333,566	-2,36
333,933	-2,31
334,3	-2,2
334,667	-2,13
335,034	-2,01
335,401	-2
335,768	-2,03
336,135	-2,04
336,502	-1,99
336,868	-1,85
337,235	-1,69
337,602	-1,5
337,969	-1,31
338,335	-1,18
338,702	-1
339,069	-0,86
339,435	-0,78
339,802	-0,64
340,168	-0,58
340,535	-0,5
340,901	-0,49
341,267	-0,44
341,634	-0,37
342	-0,33
342,366	-0,25
342,733	-0,29
343,099	-0,21
343,465	-0,12
343,831	0
344,197	0,13
344,563	0,18
344,929	0,21
345,295	0,33
345,661	0,45
346,027	0,51
346,393	0,5
346,759	0,56
347,125	0,59
347,491	0,63
347,856	0,66
348,222	0,67
348,588	0,83
348,953	0,99
349,319	1,02
349,684	1,11
350,05	1,2
350,415	1,4
350,781	1,55
351,146	1,66
351,512	1,74
351,877	1,75
352,242	1,79
352,608	1,92
352,973	1,96
353,338	1,97
353,703	2,07
354,068	2,2
354,433	2,32
354,798	2,47
355,164	2,59
355,528	2,66
355,893	2,69
356,258	2,69
356,623	2,73
356,988	2,84
357,353	2,86
357,718	2,87
358,082	2,88
358,447	2,86
358,812	2,95
359,176	3,01
359,541	3,09
359,905	3,16
360,27	3,15
360,634	3,21
360,999	3,3
361,363	3,3
361,728	3,33
362,092	3,4
362,456	3,45
362,821	3,52
363,185	3,61
363,549	3,73
363,913	3,78
364,277	3,82
364,641	3,85
365,005	3,93
365,369	4,01
365,733	4,09
366,097	4,17
366,461	4,25
366,825	4,37
367,189	4,45
367,553	4,56
367,916	4,72
368,28	4,81
368,644	4,9
369,007	5,04
369,371	5,18
369,734	5,26
370,098	5,34
370,461	5,41
370,825	5,45
371,188	5,51
371,552	5,6
371,915	5,67
372,278	5,78
372,642	5,87
373,005	5,97
373,368	6,08
373,731	6,18
374,094	6,25
374,457	6,29
374,82	6,42
375,183	6,49
375,546	6,53
375,909	6,59
376,272	6,68
376,635	6,74
376,998	6,8
377,361	6,86
377,723	6,95
378,086	7,05
378,449	7,11
378,811	7,18
379,174	7,26
379,537	7,35
379,899	7,41
380,262	7,46
380,624	7,54
380,987	7,6
381,349	7,66
381,711	7,71
382,074	7,79
382,436	7,82
382,798	7,91
383,16	7,99
383,522	8,03
383,884	8,06
384,247	8,14
384,609	8,2
384,971	8,22
385,333	8,22
385,695	8,22
386,056	8,23
386,418	8,21
386,78	8,23
387,142	8,26
387,504	8,26
387,865	8,28
388,227	8,27
388,589	8,31
388,95	8,35
389,312	8,37
389,673	8,36
390,035	8,35
390,396	8,33
390,758	8,34
391,119	8,37
391,48	8,41
391,842	8,4
392,203	8,38
392,564	8,4
392,925	8,44
393,286	8,46
393,648	8,49
394,009	8,57
394,37	8,61
394,731	8,66
395,092	8,7
395,452	8,73
395,813	8,79
396,174	8,8
396,535	8,81
396,896	8,83
397,257	8,87
397,617	8,94
397,978	9
398,338	9,01
398,699	9,05
399,06	9,09
399,42	9,11
399,781	9,15
400,141	9,17
400,501	9,16
400,862	9,19
401,222	9,21
401,582	9,2
401,943	9,22
402,303	9,23
402,663	9,26
403,023	9,27
403,383	9,27
403,743	9,27
404,103	9,29
404,463	9,32
404,823	9,36
405,183	9,36
405,543	9,37
405,903	9,38
406,262	9,37
406,622	9,32
406,982	9,34
407,342	9,37
407,701	9,41
408,061	9,44
408,42	9,46
408,78	9,51
409,139	9,53
409,499	9,54
409,858	9,54
410,217	9,56
410,577	9,57
410,936	9,56
411,295	9,57
411,655	9,54
412,014	9,52
412,373	9,47
412,732	9,43
413,091	9,4
413,45	9,36
413,809	9,34
414,168	9,33
414,527	9,27
414,886	9,22
415,245	9,16
415,603	9,14
415,962	9,07
416,321	9,01
416,679	8,98
417,038	8,95
417,397	8,91
417,755	8,85
418,114	8,83
418,472	8,8
418,831	8,78
419,189	8,76
419,547	8,74
419,906	8,75
420,264	8,73
420,622	8,7
420,981	8,7
421,339	8,69
421,697	8,68
422,055	8,71
422,413	8,72
422,771	8,76
423,129	8,77
423,487	8,8
423,845	8,83
424,203	8,86
424,56	8,89
424,918	8,92
425,276	8,97
425,634	9
425,991	9,04
426,349	9,07
426,707	9,12
427,064	9,17
427,422	9,18
427,779	9,24
428,137	9,31
428,494	9,38
428,851	9,41
429,209	9,43
429,566	9,42
429,923	9,41
430,28	9,38
430,637	9,39
430,995	9,38
431,352	9,34
431,709	9,32
432,066	9,33
432,423	9,34
432,78	9,33
433,137	9,3
433,493	9,3
433,85	9,35
434,207	9,32
434,564	9,29
434,92	9,28
435,277	9,28
435,634	9,28
435,99	9,24
436,347	9,23
436,703	9,25
437,06	9,26
437,416	9,27
437,773	9,25
438,129	9,24
438,485	9,27
438,841	9,28
439,198	9,26
439,554	9,25
439,91	9,25
440,266	9,25
440,622	9,27
440,978	9,26
441,334	9,22
441,69	9,23
442,046	9,22
442,402	9,22
442,758	9,22
443,113	9,21
443,469	9,2
443,825	9,2
444,181	9,19
444,536	9,2
444,892	9,19
445,247	9,22
445,603	9,22
445,958	9,22
446,314	9,23
446,669	9,26
447,025	9,27
447,38	9,28
447,735	9,29
448,09	9,29
448,446	9,3
448,801	9,32
449,156	9,33
449,511	9,37
449,866	9,4
450,221	9,43
450,576	9,46
450,931	9,53
451,286	9,59
451,641	9,63
451,995	9,66
452,35	9,7
452,705	9,72
453,06	9,73
453,414	9,74
453,769	9,74
454,123	9,73
454,478	9,73
454,832	9,73
455,187	9,71
455,541	9,72
455,896	9,71
456,25	9,68
456,604	9,67
456,958	9,64
457,313	9,61
457,667	9,59
458,021	9,59
458,375	9,6
458,729	9,59
459,083	9,59
459,437	9,6
459,791	9,6
460,145	9,6
460,499	9,6
460,852	9,59
461,206	9,59
461,56	9,6
461,914	9,61
462,267	9,59
462,621	9,61
462,974	9,62
463,328	9,62
463,681	9,64
464,035	9,66
464,388	9,68
464,742	9,7
465,095	9,74
465,448	9,75
465,801	9,73
466,155	9,71
466,508	9,68
466,861	9,67
467,214	9,66
467,567	9,65
467,92	9,66
468,273	9,66
468,626	9,65
468,979	9,65
469,332	9,65
469,684	9,66
470,037	9,67
470,39	9,66
470,743	9,68
471,095	9,68
471,448	9,69
471,8	9,71
472,153	9,73
472,505	9,73
472,858	9,72
473,21	9,74
473,562	9,76
473,915	9,79
474,267	9,79
474,619	9,79
474,971	9,79
475,324	9,77
475,676	9,78
476,028	9,8
476,38	9,8
476,732	9,8
477,084	9,8
477,436	9,78
477,787	9,76
478,139	9,76
478,491	9,75
478,843	9,73
479,195	9,73
479,546	9,7
479,898	9,67
480,249	9,63
480,601	9,6
480,952	9,58
481,304	9,57
481,655	9,56
482,007	9,55
482,358	9,54
482,709	9,54
483,061	9,54
483,412	9,53
483,763	9,52
484,114	9,52
484,465	9,51
484,816	9,51
485,167	9,5
485,518	9,5
485,869	9,5
486,22	9,49
486,571	9,49
486,922	9,49
487,272	9,49
487,623	9,5
487,974	9,5
488,324	9,51
488,675	9,5
489,025	9,5
489,376	9,51
489,726	9,51
490,077	9,52
490,427	9,51
490,778	9,52
491,128	9,53
491,478	9,54
491,828	9,56
492,179	9,56
492,529	9,61
492,879	9,63
493,229	9,64
493,579	9,67
493,929	9,68
494,279	9,71
494,629	9,72
494,979	9,74
495,328	9,77
495,678	9,8
496,028	9,83
496,378	9,83
496,727	9,86
497,077	9,89
497,426	9,91
497,776	9,92
498,125	9,94
498,475	9,95
498,824	9,96
499,174	9,96
499,523	9,99
499,872	9,98
500,221	9,98
500,571	9,99
500,92	10
501,269	10,01
501,618	10,01
501,967	10,01
502,316	10,02
502,665	10,04
503,014	10,03
503,363	10,03
503,711	10,04
504,06	10,07
504,409	10,07
504,758	10,06
505,106	10,04
505,455	10,03
505,803	10,03
506,152	10,03
506,5	10,03
506,849	10,03
507,197	10,03
507,546	10,02
507,894	10,03
508,242	10,04
508,59	10,03
508,939	10,01
509,287	10,01
509,635	10,01
509,983	10,01
510,331	10,02
510,679	10,03
511,027	10,05
511,375	10,03
511,723	10,03
512,07	10,04
512,418	10,08
512,766	10,08
513,114	10,1
513,461	10,12
513,809	10,13
514,156	10,13
514,504	10,14
514,851	10,14
515,199	10,12
515,546	10,11
515,893	10,1
516,241	10,11
516,588	10,11
516,935	10,11
517,282	10,11
517,63	10,12
517,977	10,12
518,324	10,13
518,671	10,15
519,018	10,16
519,365	10,15
519,711	10,15
520,058	10,16
520,405	10,16
520,752	10,16
521,099	10,17
521,445	10,17
521,792	10,18
522,138	10,18
522,485	10,19
522,832	10,21
523,178	10,22
523,524	10,22
523,871	10,22
524,217	10,22
524,563	10,19
524,91	10,16
525,256	10,11
525,602	10,08
525,948	10,08
526,294	10,07
526,64	10,07
526,986	10,05
527,332	10,03
527,678	10,03
528,024	10,03
528,37	10,04
528,716	10,04
529,061	10,02
529,407	10,02
529,753	10,02
530,098	10,02
530,444	10,02
530,789	10,03
531,135	10,03
531,48	10,02
531,826	10,02
532,171	10,04
532,516	10,06
532,862	10,08
533,207	10,07
533,552	10,09
533,897	10,1
534,242	10,12
534,587	10,13
534,932	10,13
535,277	10,13
535,622	10,12
535,967	10,14
536,312	10,17
536,657	10,19
537,001	10,19
537,346	10,2
537,691	10,2
538,035	10,2
538,38	10,19
538,724	10,21
539,069	10,21
539,413	10,21
539,758	10,21
540,102	10,22
540,446	10,21
540,791	10,2
541,135	10,19
541,479	10,2
541,823	10,21
542,167	10,21
542,512	10,22
542,856	10,21
543,2	10,19
543,543	10,19
543,887	10,18
544,231	10,2
544,575	10,19
544,919	10,21
545,262	10,23
545,606	10,25
545,95	10,25
546,293	10,25
546,637	10,26
546,98	10,27
547,324	10,27
547,667	10,32
548,011	10,3
548,354	10,32
548,697	10,3
549,04	10,3
549,384	10,31
549,727	10,29
550,07	10,28
550,413	10,28
550,756	10,27
551,099	10,26
551,442	10,25
551,785	10,26
552,128	10,26
552,47	10,26
552,813	10,29
553,156	10,29
553,499	10,28
553,841	10,29
554,184	10,29
554,526	10,26
554,869	10,21
555,211	10,23
555,554	10,22
555,896	10,21
556,238	10,17
556,581	10,14
556,923	10,13
557,265	10,14
557,607	10,12
557,949	10,11
558,291	10,09
558,633	10,06
558,975	10,03
559,317	9,99
559,659	9,94
560,001	9,88
560,343	9,85
560,685	9,85
561,026	9,83
561,368	9,82
561,71	9,82
562,051	9,81
562,393	9,8
562,734	9,75
563,076	9,75
563,417	9,75
563,759	9,75
564,1	9,73
564,441	9,72
564,782	9,7
565,124	9,68
565,465	9,68
565,806	9,68
566,147	9,67
566,488	9,67
566,829	9,67
567,17	9,67
567,511	9,65
567,851	9,62
568,192	9,59
568,533	9,57
568,874	9,57
569,214	9,59
569,555	9,55
569,895	9,56
570,236	9,53
570,576	9,52
570,917	9,5
571,257	9,49
571,598	9,48
571,938	9,49
572,278	9,49
572,618	9,49
572,959	9,49
573,299	9,46
573,639	9,43
573,979	9,42
574,319	9,41
574,659	9,4
574,999	9,39
575,339	9,38
575,678	9,38
576,018	9,35
576,358	9,32
576,698	9,31
577,037	9,29
577,377	9,3
577,716	9,26
578,056	9,24
578,395	9,2
578,735	9,17
579,074	9,15
579,413	9,13
579,753	9,1
580,092	9,04
580,431	9
580,77	9,01
581,109	8,97
581,448	8,95
581,787	8,92
582,126	8,92
582,465	8,89
582,804	8,87
583,143	8,87
583,482	8,85
583,82	8,82
584,159	8,81
584,498	8,78
584,836	8,78
585,175	8,77
585,514	8,78
585,852	8,76
586,19	8,76
586,529	8,74
586,867	8,71
587,205	8,72
587,544	8,75
587,882	8,74
588,22	8,76
588,558	8,77
588,896	8,8
589,234	8,8
589,572	8,79
589,91	8,78
590,248	8,77
590,586	8,77
590,924	8,8
591,262	8,8
591,599	8,82
591,937	8,84
592,275	8,85
592,612	8,87
592,95	8,93
593,287	8,93
593,625	8,95
593,962	8,98
594,299	8,99
594,637	9,02
594,974	9,02
595,311	9,05
595,648	9,07
595,985	9,06
596,322	9,05
596,659	9,07
596,996	9,07
597,333	9,06
597,67	9,03
598,007	9,02
598,344	9,03
598,681	9,03
599,017	9,03
599,354	9,01
599,691	8,99
600,027	8,97
600,364	8,99
600,7	9,01
601,037	9,01
601,373	9,03
601,71	9,04
602,046	9,06
602,382	9,06
602,718	9,07
603,054	9,07
603,391	9,08
603,727	9,11
604,063	9,11
604,399	9,14
604,735	9,17
605,071	9,16
605,406	9,17
605,742	9,16
606,078	9,16
606,414	9,21
606,749	9,24
607,085	9,25
607,421	9,23
607,756	9,21
608,092	9,19
608,427	9,17
608,762	9,12
609,098	9,1
609,433	9,08
609,768	9,06
610,104	9,07
610,439	9,06
610,774	9,02
611,109	9,01
611,444	8,99
611,779	8,98
612,114	8,99
612,449	9
612,784	8,98
613,118	8,96
613,453	8,92
613,788	8,88
614,123	8,83
614,457	8,8
614,792	8,78
615,126	8,79
615,461	8,78
615,795	8,79
616,13	8,75
616,464	8,72
616,798	8,71
617,132	8,68
617,467	8,63
617,801	8,63
618,135	8,63
618,469	8,64
618,803	8,64
619,137	8,63
619,471	8,6
619,805	8,6
620,139	8,62
620,472	8,63
620,806	8,61
621,14	8,6
621,473	8,59
621,807	8,55
622,141	8,54
622,474	8,52
622,808	8,52
623,141	8,54
623,474	8,56
623,808	8,56
624,141	8,61
624,474	8,68
624,807	8,73
625,141	8,75
625,474	8,76
625,807	8,76
626,14	8,75
626,473	8,77
626,806	8,78
627,138	8,78
627,471	8,75
627,804	8,74
628,137	8,77
628,469	8,78
628,802	8,82
629,135	8,8
629,467	8,81
629,8	8,81
630,132	8,8
630,465	8,78
630,797	8,77
631,129	8,74
631,461	8,68
631,794	8,63
632,126	8,61
632,458	8,58
632,79	8,59
633,122	8,62
633,454	8,59
633,786	8,57
634,118	8,56
634,45	8,61
634,781	8,64
635,113	8,63
635,445	8,65
635,777	8,66
636,108	8,66
636,44	8,67
636,771	8,69
637,103	8,71
637,434	8,72
637,765	8,69
638,097	8,65
638,428	8,68
638,759	8,69
639,09	8,7
639,422	8,72
639,753	8,7
640,084	8,67
640,415	8,66
640,746	8,66
641,077	8,69
641,407	8,65
641,738	8,63
642,069	8,6
642,4	8,59
642,73	8,56
643,061	8,59
643,392	8,6
643,722	8,6
644,053	8,58
644,383	8,57
644,713	8,58
645,044	8,59
645,374	8,57
645,704	8,56
646,034	8,52
646,365	8,5
646,695	8,48
647,025	8,49
647,355	8,5
647,685	8,52
648,015	8,51
648,344	8,51
648,674	8,53
649,004	8,55
649,334	8,55
649,663	8,57
649,993	8,57
650,323	8,57
650,652	8,58
650,982	8,59
651,311	8,59
651,64	8,6
651,97	8,61
652,299	8,62
652,628	8,63
652,958	8,65
653,287	8,68
653,616	8,72
653,945	8,74
654,274	8,76
654,603	8,74
654,932	8,74
655,261	8,73
655,589	8,74
655,918	8,77
656,247	8,79
656,576	8,83
656,904	8,87
657,233	8,9
657,561	8,94
657,89	8,98
658,218	9,01
658,547	9,04
658,875	9,07
659,203	9,09
659,532	9,1
659,86	9,12
660,188	9,1
660,516	9,09
660,844	9,08
661,172	9,07
661,5	9,1
661,828	9,11
662,156	9,12
662,484	9,13
662,811	9,12
663,139	9,1
663,467	9,04
663,794	8,96
664,122	8,92
664,45	8,89
664,777	8,84
665,104	8,83
665,432	8,8
665,759	8,79
666,086	8,77
666,414	8,76
666,741	8,76
667,068	8,79
667,395	8,83
667,722	8,84
668,049	8,87
668,376	8,87
668,703	8,88
669,03	8,91
669,357	8,89
669,683	8,86
670,01	8,84
670,337	8,84
670,663	8,88
670,99	8,84
671,317	8,81
671,643	8,76
671,969	8,71
672,296	8,7
672,622	8,7
672,948	8,69
673,275	8,68
673,601	8,68
673,927	8,66
674,253	8,63
674,579	8,6
674,905	8,55
675,231	8,56
675,557	8,53
675,883	8,5
676,209	8,52
676,534	8,58
676,86	8,64
677,186	8,7
677,511	8,75
677,837	8,84
678,162	8,89
678,488	8,94
678,813	8,99
679,139	9,03
679,464	9,06
679,789	9,07
680,114	9,06
680,44	9,03
680,765	9,02
681,09	9
681,415	8,97
681,74	9
682,065	9
682,39	9
682,714	8,98
683,039	8,98
683,364	8,96
683,689	8,94
684,013	8,87
684,338	8,83
684,662	8,79
684,987	8,76
685,311	8,75
685,636	8,76
685,96	8,74
686,284	8,71
686,608	8,64
686,933	8,61
687,257	8,62
687,581	8,64
687,905	8,66
688,229	8,69
688,553	8,66
688,877	8,65
689,201	8,69
689,524	8,75
689,848	8,77
690,172	8,77
690,496	8,76
690,819	8,77
691,143	8,75
691,466	8,71
691,79	8,66
692,113	8,61
692,436	8,58
692,76	8,61
693,083	8,63
693,406	8,67
693,729	8,7
694,053	8,68
694,376	8,65
694,699	8,62
695,022	8,62
695,344	8,7
695,667	8,77
695,99	8,82
696,313	8,93
696,636	9,04
696,958	9,11
697,281	9,18
697,604	9,24
697,926	9,31
698,249	9,36
698,571	9,4
698,893	9,44
699,216	9,43
699,538	9,43
699,86	9,45
700,182	9,5
700,504	9,52
700,827	9,49
701,149	9,49
701,471	9,51
701,793	9,52
702,114	9,51
702,436	9,45
702,758	9,37
703,08	9,21
703,401	9,05
703,723	8,91
704,045	8,8
704,366	8,68
704,688	8,59
705,009	8,54
705,331	8,51
705,652	8,49
705,973	8,5
706,294	8,46
706,616	8,4
706,937	8,36
707,258	8,37
707,579	8,43
707,9	8,47
708,221	8,48
708,542	8,44
708,863	8,37
709,183	8,36
709,504	8,4
709,825	8,44
710,145	8,47
710,466	8,51
710,787	8,57
711,107	8,65
711,427	8,67
711,748	8,71
712,068	8,8
712,388	8,87
712,709	8,96
713,029	9
713,349	9,04
713,669	9,05
713,989	9,05
714,309	9,12
714,629	9,21
714,949	9,29
715,269	9,36
715,589	9,43
715,908	9,42
716,228	9,41
716,548	9,44
716,867	9,5
717,187	9,56
717,506	9,56
717,826	9,52
718,145	9,53
718,465	9,54
718,784	9,49
719,103	9,47
719,422	9,45
719,741	9,45
720,061	9,48
720,38	9,61
720,699	9,71
721,018	9,72
721,336	9,67
721,655	9,72
721,974	9,83
722,293	9,94
722,612	10,1
722,93	10,21
723,249	10,29
723,567	10,36
723,886	10,47
724,204	10,62
724,523	10,79
724,841	11,06
725,159	11,22
725,477	11,46
725,796	11,57
726,114	11,68
726,432	11,84
726,75	11,99
727,068	12,11
727,386	12,25
727,704	12,37
728,022	12,61
728,339	12,76
728,657	12,88
728,975	12,99
729,292	13,14
729,61	13,29
729,928	13,39
730,245	13,5
730,562	13,6
730,88	13,74
731,197	13,92
731,514	13,98
731,832	14,08
732,149	14,06
732,466	14,18
732,783	14,28
733,1	14,35
733,417	14,43
733,734	14,53
734,051	14,64
734,368	14,73
734,684	14,74
735,001	14,77
735,318	14,85
735,634	14,94
735,951	14,99
736,268	15,03
736,584	15,09
736,9	15,11
737,217	15,11
737,533	15,12
737,849	15,16
738,166	15,23
738,482	15,37
738,798	15,62
739,114	15,78
739,43	15,96
739,746	16,11
740,062	16,18
740,378	16,19
740,693	16,24
741,009	16,43
741,325	16,57
741,641	16,63
741,956	16,7
742,272	16,78
742,587	16,86
742,903	16,9
743,218	16,98
743,533	17,14
743,849	17,28
744,164	17,46
744,479	17,54
744,794	17,61
745,109	17,65
745,424	17,66
745,739	17,63
746,054	17,62
746,369	17,62
746,684	17,77
746,999	17,95
747,313	17,98
747,628	17,92
747,943	17,8
748,257	17,84
748,572	17,98
748,886	18,08
749,201	18,23
749,515	18,46
749,829	18,61
750,144	18,73
750,458	18,74
750,772	18,8
751,086	18,9
751,4	19
751,714	18,98
752,028	19,03
752,342	19,12
752,656	19,14
752,97	19,23
753,284	19,3
753,597	19,34
753,911	19,45
754,225	19,49
754,538	19,77
754,852	19,92
755,165	19,98
755,478	20,05
755,792	20,01
756,105	19,97
756,418	20
756,731	20,02
757,045	20,11
757,358	20,07
757,671	20,12
757,984	20,15
758,297	20,21
758,609	20,23
758,922	20,23
759,235	20,29
759,548	20,23
759,86	20,1
760,173	19,95
760,486	19,88
760,798	19,84
761,111	19,68
761,423	19,57
761,735	19,5
762,048	19,48
762,36	19,57
762,672	19,64
762,984	19,76
763,296	19,85
763,608	20
763,92	20,09
764,232	20,09
764,544	20,14
764,856	20,26
765,168	20,34
765,48	20,51
765,791	20,63
766,103	20,77
766,414	21,01
766,726	21,27
767,037	21,56
767,349	21,96
767,66	22,34
767,972	22,72
768,283	23,1
768,594	23,38
768,905	23,54
769,216	23,75
769,527	23,98
769,838	24,18
770,149	24,38
770,46	24,71
770,771	25,04
771,082	25,29
771,393	25,53
771,703	25,77
772,014	26,05
772,324	26,25
772,635	26,42
772,945	26,56
773,256	26,72
773,566	26,89
773,877	27,06
774,187	27,29
774,497	27,44
774,807	27,58
775,117	27,78
775,427	27,96
775,737	28,15
776,047	28,25
776,357	28,3
776,667	28,27
776,977	28,28
777,287	28,38
777,596	28,48
777,906	28,38
778,216	28,52
778,525	28,61
778,835	28,81
779,144	29,43
779,453	29,83
779,763	30,11
780,072	30,19
780,381	30,18
780,69	30,25
781	30,43
781,309	30,68
781,618	30,89
781,927	31,18
782,235	31,34
782,544	31,39
782,853	31,59
783,162	31,76
783,471	31,84
783,779	31,92
784,088	31,91
784,396	31,95
784,705	31,71
785,013	31,26
785,322	31,01
785,63	30,59
785,938	30,16
786,246	29,95
786,554	30
786,863	30,09
787,171	29,94
787,479	29,92
787,787	29,85
788,094	29,74
788,402	29,72
788,71	29,73
789,018	29,82
789,326	29,76
789,633	29,73
789,941	29,86
790,248	29,95
790,556	30,09
790,863	30,31
791,171	30,62
791,478	31,03
791,785	31,22
792,092	31,16
792,399	31,43
792,707	31,68
793,014	31,87
793,321	32,07
793,628	32,38
793,934	32,37
794,241	32,36
794,548	32,35
794,855	32,26
795,161	32,31
795,468	32,26
795,775	32,4
796,081	32,57
796,388	32,59
796,694	32,57
797	32,48
797,307	32,56
797,613	32,49
797,919	32,58
798,225	32,77
798,531	32,85
798,837	32,64
799,143	32,47
799,449	32,23
799,755	32,17
800,061	32,24
800,367	32,41
800,672	32,65
800,978	32,98
801,284	33,21
801,589	33,3
801,895	33,44
802,2	33,34
802,506	33,3
802,811	33,18
803,116	33,24
803,421	33,39
803,727	33,35
804,032	33,35
804,337	33,32
804,642	33,27
804,947	33,38
805,252	33,74
805,556	33,97
805,861	34,23
806,166	34,42
806,471	34,3
806,775	34,27
807,08	34,28
807,384	34,22
807,689	34,38
807,993	34,32
808,298	34,3
808,602	34,39
808,906	34,36
809,211	34,54
809,515	34,76
809,819	34,99
810,123	35,23
810,427	35,59
810,731	35,77
811,035	36,01
811,338	36,11
811,642	36,03
811,946	36,11
812,25	36,21
812,553	36,18
812,857	36,37
813,16	36,57
813,464	36,65
813,767	36,71
814,07	36,75
814,374	36,94
814,677	37,09
814,98	37,04
815,283	37,1
815,586	37
815,889	36,75
816,192	36,55
816,495	36,49
816,798	36,27
817,101	35,91
817,404	35,58
817,706	35,24
818,009	34,66
818,312	33,6
818,614	32,34
818,917	30,35
819,219	28,1
819,521	25,94
819,824	24,21
820,126	22,79
820,428	21,79
820,73	21,16
821,032	20,68
821,334	20,34
821,636	20,12
821,938	19,96
822,24	19,8
822,542	19,64
822,844	19,53
823,145	19,43
823,447	19,33
823,749	19,2
824,05	19,09
824,352	19,02
824,653	19,05
824,955	19,03
825,256	19,12
825,557	19,3
825,858	19,62
826,16	19,96
826,461	20,43
826,762	20,83
827,063	21,22
827,364	21,74
827,665	22,21
827,965	22,65
828,266	23,07
828,567	23,5
828,868	23,89
829,168	24,2
829,469	24,46
829,769	24,77
830,07	25,21
830,37	25,67
830,67	26,16
830,971	26,52
831,271	26,98
831,571	27,31
831,871	27,54
832,171	27,63
832,471	27,75
832,771	27,89
833,071	28,08
833,371	28,19
833,671	28,28
833,971	28,39
834,27	28,29
834,57	28,48
834,869	28,59
835,169	28,66
835,468	28,69
835,768	28,96
836,067	29,35
836,367	29,63
836,666	30,04
836,965	30,58
837,264	31,14
837,563	31,87
837,862	32,83
838,161	33,67
838,46	34,57
838,759	35,39
839,058	36,23
839,356	37,43
839,655	38,4
839,954	38,84
840,252	39,51
840,551	40,54
840,849	41,07
841,148	41,62
841,446	41,96
841,744	42,06
842,043	42,16
842,341	42,22
842,639	42,12
842,937	41,97
843,235	42,03
843,533	42,54
843,831	43,26
844,129	44,12
844,427	45,4
844,724	46,71
845,022	48,32
845,32	49,61
845,617	50,62
845,915	51,63
846,212	52,73
846,51	53,64
846,807	54,04
847,104	54,25
847,402	54,6
847,699	55,64
847,996	57,11
848,293	58,32
848,59	59,46
848,887	60,22
849,184	60,7
849,481	60,83
849,778	60,85
850,074	61,44
850,371	62,14
850,668	62,4
850,964	62,19
851,261	62,01
851,557	62,07
851,854	61,91
852,15	61,82
852,446	62,17
852,743	62,79
853,039	63,42
853,335	63,45
853,631	63,25
853,927	62,87
854,223	62,32
854,519	61,94
854,815	61,09
855,111	60,75
855,406	60,93
855,702	61,54
855,998	61,8
856,293	61,4
856,589	60,85
856,884	60,82
857,18	61,01
857,475	60,89
857,77	60,82
858,066	60,84
858,361	61,05
858,656	60,95
858,951	60,23
859,246	60,07
859,541	59,98
859,836	60,05
860,131	60,03
860,426	60,19
860,72	60,22
861,015	60,99
861,31	61,65
861,604	62,2
861,899	62,16
862,193	62,38
862,487	62,67
862,782	62,35
863,076	61,96
863,37	62,37
863,664	62,8
863,959	62,45
864,253	61,94
864,547	61,54
864,841	61,8
865,135	62,59
865,428	62,92
865,722	63,32
866,016	63,57
866,31	63,77
866,603	63,62
866,897	63,5
867,19	63,09
867,484	62,99
867,777	62,65
868,07	62,53
868,364	62,44
868,657	62,28
868,95	62,65
869,243	62,99
869,536	62,35
869,829	62,23
870,122	62,55
870,415	62,82
870,708	63,35
871	62,97
871,293	62,27
871,586	61,59
871,878	61,02
872,171	61,03
872,463	61,42
872,756	61,83
873,048	61,19
873,341	60,81
873,633	60,33
873,925	60,06
874,217	59,77
874,509	59,62
874,801	59,34
875,093	59,41
875,385	59,14
875,677	59,52
875,969	58,96
