Data from zc74051_3_Reflection_00001.txt Node
Date: Thu Mar 12 15:04:33 ART 2020
User: Ana
Spectrometer: USB2E3644
Trigger mode: 4
Integration Time (sec): 5,000000E-2
Scans to average: 10
Electric dark correction enabled: true
Nonlinearity correction enabled: false
Boxcar width: 10
XAxis mode: Wavelengths
Number of Pixels in Spectrum: 2048
>>>>>Begin Spectral Data<<<<<
178,315	128,08
178,696	138,29
179,076	147,28
179,457	142,94
179,838	137,18
180,218	176,77
180,599	-61,11
180,979	-10,53
181,36	224,44
181,74	156,57
182,121	141,48
182,501	117,27
182,881	112,77
183,262	110,54
183,642	110,36
184,022	109,25
184,402	107,71
184,783	105,96
185,163	104,86
185,543	105,61
185,923	107,69
186,303	109,67
186,683	111,58
187,063	111,31
187,443	110,65
187,823	108,19
188,203	105,98
188,583	105,78
188,963	106,56
189,343	105,87
189,723	105,83
190,102	104,35
190,482	103,24
190,862	102,71
191,242	103,09
191,621	103,42
192,001	104,09
192,38	104,27
192,76	105,55
193,14	106,66
193,519	107,08
193,898	106,7
194,278	106,51
194,657	106,86
195,037	107,95
195,416	108,47
195,795	110,12
196,175	112,23
196,554	112,37
196,933	112,46
197,312	113,67
197,692	114,5
198,071	116,25
198,45	118,77
198,829	120,73
199,208	121,57
199,587	122,54
199,966	123,99
200,345	125,35
200,724	125,4
201,103	124,84
201,482	124,57
201,86	124,06
202,239	124
202,618	123,35
202,997	122,49
203,375	121,83
203,754	120,03
204,133	119,15
204,511	118,54
204,89	117,81
205,269	116,95
205,647	115,64
206,026	113,73
206,404	112
206,782	110,61
207,161	109,42
207,539	108,39
207,918	106,98
208,296	105,68
208,674	105,28
209,052	105,61
209,431	105,84
209,809	106,81
210,187	107,17
210,565	107,47
210,943	107,81
211,321	108,34
211,699	109,83
212,077	110,97
212,455	112,25
212,833	113,09
213,211	112,67
213,589	112,37
213,967	113,12
214,345	112,83
214,722	112,3
215,1	112,5
215,478	112,96
215,855	113,82
216,233	114,99
216,611	115,27
216,988	115,18
217,366	114,82
217,743	114,18
218,121	113,21
218,498	111,67
218,876	110,81
219,253	109,93
219,631	108,18
220,008	106,24
220,385	104,47
220,762	103,37
221,14	102,93
221,517	103,3
221,894	103,18
222,271	103,65
222,648	104,39
223,025	104,15
223,402	104,31
223,78	103,18
224,157	101,2
224,533	100,15
224,91	100,15
225,287	100,96
225,664	102,06
226,041	104,39
226,418	107,19
226,795	108,78
227,171	109,83
227,548	111,57
227,925	113,03
228,301	113,94
228,678	114,06
229,055	115,09
229,431	116,68
229,808	117,8
230,184	118,34
230,561	119,29
230,937	120,99
231,313	121,95
231,69	124,06
232,066	128,16
232,442	131,84
232,819	134,46
233,195	135,8
233,571	137,34
233,947	137,47
234,323	137,81
234,699	139,14
235,075	141,01
235,451	143,71
235,827	147
236,203	151,06
236,579	155,61
236,955	159,61
237,331	163,54
237,707	171,26
238,083	181,66
238,459	194,15
238,834	212,41
239,21	237,93
239,586	267,3
239,961	292,06
240,337	311,33
240,713	323,9
241,088	338,68
241,464	351,41
241,839	369,36
242,215	400,75
242,59	488,55
242,965	861,01
243,341	-4598,92
243,716	-568,54
244,091	-326,42
244,467	-247,09
244,842	-203,94
245,217	-173,07
245,592	-156,11
245,967	-151,14
246,343	-144,44
246,718	-140,56
247,093	-142,72
247,468	-146,28
247,843	-143,93
248,218	-135,83
248,593	-123,5
248,967	-112,27
249,342	-106,24
249,717	-102,68
250,092	-100,28
250,467	-101,82
250,841	-110,45
251,216	-129,73
251,591	-160,87
251,965	-196,61
252,34	-231,55
252,714	-276,84
253,089	-334,17
253,463	-379,96
253,838	-383,91
254,212	-375,19
254,587	-340,64
254,961	-276,25
255,335	-217,06
255,71	-167,66
256,084	-122,05
256,458	-93,76
256,832	-77,64
257,206	-68,47
257,581	-63,75
257,955	-61,12
258,329	-58,95
258,703	-55,88
259,077	-53,5
259,451	-51,08
259,825	-49,78
260,199	-49,49
260,572	-48,62
260,946	-48,62
261,32	-48,43
261,694	-47,69
262,068	-47,59
262,441	-47,19
262,815	-47,16
263,189	-46,71
263,562	-47,54
263,936	-50,97
264,309	-56,8
264,683	-63,46
265,056	-67,59
265,43	-69,07
265,803	-68,45
266,176	-66,86
266,55	-65,99
266,923	-64,85
267,296	-63,39
267,67	-60,81
268,043	-58,49
268,416	-55,32
268,789	-51,55
269,162	-48,01
269,535	-45,22
269,908	-42,9
270,281	-41,55
270,654	-41,09
271,027	-41,67
271,4	-42,04
271,773	-42,4
272,146	-42,27
272,519	-41,91
272,891	-41,56
273,264	-41,24
273,637	-40,88
274,01	-40,63
274,382	-41,48
274,755	-42,08
275,127	-42,54
275,5	-42,83
275,872	-42,57
276,245	-42,76
276,617	-43,57
276,99	-44,35
277,362	-45,24
277,734	-45,58
278,107	-45,39
278,479	-44,43
278,851	-43,21
279,223	-42,35
279,596	-41,26
279,968	-40,54
280,34	-39,78
280,712	-39,01
281,084	-37,72
281,456	-36,64
281,828	-35,32
282,2	-32,86
282,572	-30,87
282,944	-29,3
283,315	-28,39
283,687	-27,63
284,059	-27,2
284,431	-26,73
284,802	-26,15
285,174	-25,62
285,546	-25,2
285,917	-24,76
286,289	-24,51
286,66	-24,29
287,032	-23,74
287,403	-23,43
287,775	-23,24
288,146	-23,42
288,518	-23,65
288,889	-23,63
289,26	-23,73
289,632	-24,16
290,003	-24,75
290,374	-25,08
290,745	-25,42
291,116	-25,53
291,487	-25,66
291,858	-25,52
292,229	-25,34
292,6	-25,07
292,971	-24,4
293,342	-23,56
293,713	-22,76
294,084	-22,05
294,455	-21,21
294,826	-20,84
295,196	-20,68
295,567	-20,82
295,938	-20,57
296,308	-20,23
296,679	-20,06
297,05	-19,74
297,42	-19,26
297,791	-18,76
298,161	-18,57
298,532	-18,3
298,902	-17,98
299,272	-17,75
299,643	-17,59
300,013	-17,28
300,383	-17,02
300,754	-16,93
301,124	-17,23
301,494	-17,59
301,864	-17,93
302,234	-18,19
302,604	-18,24
302,974	-18,13
303,344	-17,76
303,714	-17,33
304,084	-16,96
304,454	-16,83
304,824	-16,74
305,194	-16,74
305,563	-16,83
305,933	-16,66
306,303	-16,3
306,673	-15,83
307,042	-15,09
307,412	-14,22
307,781	-13,44
308,151	-12,9
308,521	-12,61
308,89	-12,24
309,259	-12,12
309,629	-12,02
309,998	-11,96
310,368	-11,97
310,737	-11,87
311,106	-11,77
311,475	-11,7
311,845	-11,77
312,214	-11,65
312,583	-11,56
312,952	-11,5
313,321	-11,37
313,69	-11,1
314,059	-11,09
314,428	-11,3
314,797	-11,69
315,166	-12,22
315,535	-12,84
315,904	-13,42
316,272	-13,78
316,641	-14,07
317,01	-14,11
317,379	-14,09
317,747	-13,93
318,116	-13,63
318,484	-13,5
318,853	-13,43
319,221	-13,49
319,59	-13,5
319,958	-13,39
320,327	-13,09
320,695	-12,77
321,063	-12,4
321,432	-12,11
321,8	-11,68
322,168	-11,35
322,536	-11,14
322,905	-10,66
323,273	-10,19
323,641	-9,83
324,009	-9,6
324,377	-9,44
324,745	-9,15
325,113	-8,75
325,481	-8,46
325,849	-8,31
326,216	-8,06
326,584	-7,74
326,952	-7,48
327,32	-7,19
327,687	-7,09
328,055	-6,98
328,423	-6,82
328,79	-6,8
329,158	-6,84
329,525	-6,87
329,893	-6,75
330,26	-6,53
330,628	-6,45
330,995	-6,37
331,362	-6,3
331,73	-6,12
332,097	-5,76
332,464	-5,49
332,831	-5,23
333,199	-5,04
333,566	-4,75
333,933	-4,45
334,3	-4,26
334,667	-4,1
335,034	-3,9
335,401	-3,69
335,768	-3,51
336,135	-3,39
336,502	-3,3
336,868	-3,14
337,235	-3,04
337,602	-2,94
337,969	-2,8
338,335	-2,74
338,702	-2,62
339,069	-2,56
339,435	-2,55
339,802	-2,51
340,168	-2,47
340,535	-2,42
340,901	-2,44
341,267	-2,43
341,634	-2,4
342	-2,3
342,366	-2,16
342,733	-2,11
343,099	-2,03
343,465	-2
343,831	-1,95
344,197	-1,84
344,563	-1,76
344,929	-1,68
345,295	-1,53
345,661	-1,36
346,027	-1,19
346,393	-1,11
346,759	-0,93
347,125	-0,78
347,491	-0,75
347,856	-0,78
348,222	-0,85
348,588	-0,76
348,953	-0,69
349,319	-0,71
349,684	-0,66
350,05	-0,64
350,415	-0,58
350,781	-0,51
351,146	-0,37
351,512	-0,21
351,877	-0,12
352,242	-0,05
352,608	0,08
352,973	0,19
353,338	0,26
353,703	0,34
354,068	0,38
354,433	0,44
354,798	0,53
355,164	0,62
355,528	0,74
355,893	0,86
356,258	0,94
356,623	1,09
356,988	1,3
357,353	1,4
357,718	1,46
358,082	1,53
358,447	1,63
358,812	1,74
359,176	1,8
359,541	1,9
359,905	2
360,27	2,05
360,634	2,05
360,999	2,1
361,363	2,13
361,728	2,23
362,092	2,31
362,456	2,38
362,821	2,51
363,185	2,66
363,549	2,83
363,913	2,91
364,277	2,95
364,641	2,93
365,005	2,97
365,369	3,06
365,733	3,2
366,097	3,3
366,461	3,33
366,825	3,4
367,189	3,47
367,553	3,57
367,916	3,75
368,28	3,91
368,644	4
369,007	4,13
369,371	4,27
369,734	4,38
370,098	4,46
370,461	4,51
370,825	4,55
371,188	4,59
371,552	4,67
371,915	4,71
372,278	4,84
372,642	4,93
373,005	5,03
373,368	5,13
373,731	5,24
374,094	5,39
374,457	5,53
374,82	5,67
375,183	5,78
375,546	5,84
375,909	5,88
376,272	5,98
376,635	6,06
376,998	6,13
377,361	6,24
377,723	6,39
378,086	6,45
378,449	6,53
378,811	6,59
379,174	6,71
379,537	6,82
379,899	6,89
380,262	6,98
380,624	7,05
380,987	7,13
381,349	7,19
381,711	7,26
382,074	7,35
382,436	7,43
382,798	7,56
383,16	7,61
383,522	7,7
383,884	7,76
384,247	7,82
384,609	7,87
384,971	7,88
385,333	7,85
385,695	7,91
386,056	7,94
386,418	7,96
386,78	7,97
387,142	8
387,504	8,04
387,865	8,09
388,227	8,14
388,589	8,19
388,95	8,24
389,312	8,24
389,673	8,24
390,035	8,24
390,396	8,21
390,758	8,24
391,119	8,26
391,48	8,3
391,842	8,32
392,203	8,35
392,564	8,4
392,925	8,49
393,286	8,55
393,648	8,6
394,009	8,66
394,37	8,68
394,731	8,72
395,092	8,73
395,452	8,74
395,813	8,77
396,174	8,77
396,535	8,77
396,896	8,79
397,257	8,82
397,617	8,86
397,978	8,89
398,338	8,94
398,699	9,01
399,06	9,08
399,42	9,09
399,781	9,11
400,141	9,09
400,501	9,06
400,862	9,07
401,222	9,11
401,582	9,12
401,943	9,16
402,303	9,18
402,663	9,21
403,023	9,24
403,383	9,27
403,743	9,29
404,103	9,31
404,463	9,33
404,823	9,37
405,183	9,38
405,543	9,41
405,903	9,4
406,262	9,38
406,622	9,37
406,982	9,39
407,342	9,43
407,701	9,49
408,061	9,51
408,42	9,54
408,78	9,54
409,139	9,53
409,499	9,53
409,858	9,56
410,217	9,6
410,577	9,6
410,936	9,57
411,295	9,56
411,655	9,56
412,014	9,55
412,373	9,53
412,732	9,51
413,091	9,48
413,45	9,42
413,809	9,35
414,168	9,31
414,527	9,25
414,886	9,19
415,245	9,14
415,603	9,12
415,962	9,09
416,321	9,08
416,679	9,05
417,038	9,01
417,397	8,96
417,755	8,92
418,114	8,9
418,472	8,9
418,831	8,89
419,189	8,89
419,547	8,88
419,906	8,86
420,264	8,85
420,622	8,83
420,981	8,84
421,339	8,84
421,697	8,84
422,055	8,87
422,413	8,9
422,771	8,93
423,129	8,95
423,487	8,97
423,845	8,99
424,203	9,03
424,56	9,08
424,918	9,12
425,276	9,16
425,634	9,18
425,991	9,2
426,349	9,23
426,707	9,27
427,064	9,32
427,422	9,35
427,779	9,4
428,137	9,47
428,494	9,55
428,851	9,6
429,209	9,61
429,566	9,58
429,923	9,55
430,28	9,53
430,637	9,53
430,995	9,53
431,352	9,52
431,709	9,5
432,066	9,49
432,423	9,49
432,78	9,49
433,137	9,51
433,493	9,53
433,85	9,58
434,207	9,55
434,564	9,53
434,92	9,53
435,277	9,53
435,634	9,52
435,99	9,5
436,347	9,49
436,703	9,53
437,06	9,54
437,416	9,56
437,773	9,57
438,129	9,56
438,485	9,57
438,841	9,56
439,198	9,56
439,554	9,56
439,91	9,57
440,266	9,58
440,622	9,57
440,978	9,54
441,334	9,49
441,69	9,48
442,046	9,47
442,402	9,47
442,758	9,47
443,113	9,45
443,469	9,45
443,825	9,45
444,181	9,45
444,536	9,46
444,892	9,46
445,247	9,48
445,603	9,49
445,958	9,49
446,314	9,51
446,669	9,52
447,025	9,52
447,38	9,52
447,735	9,52
448,09	9,54
448,446	9,56
448,801	9,59
449,156	9,61
449,511	9,64
449,866	9,67
450,221	9,69
450,576	9,74
450,931	9,78
451,286	9,81
451,641	9,84
451,995	9,89
452,35	9,93
452,705	9,94
453,06	9,93
453,414	9,94
453,769	9,96
454,123	9,98
454,478	9,98
454,832	9,99
455,187	9,99
455,541	9,97
455,896	9,95
456,25	9,91
456,604	9,88
456,958	9,87
457,313	9,85
457,667	9,84
458,021	9,85
458,375	9,86
458,729	9,88
459,083	9,89
459,437	9,9
459,791	9,88
460,145	9,89
460,499	9,91
460,852	9,88
461,206	9,88
461,56	9,87
461,914	9,88
462,267	9,87
462,621	9,88
462,974	9,89
463,328	9,91
463,681	9,96
464,035	10,01
464,388	10,03
464,742	10,05
465,095	10,07
465,448	10,07
465,801	10,05
466,155	10,03
466,508	10,02
466,861	9,98
467,214	9,99
467,567	9,98
467,92	9,99
468,273	10,01
468,626	10,01
468,979	10,01
469,332	10
469,684	10
470,037	10,01
470,39	10,03
470,743	10,06
471,095	10,07
471,448	10,04
471,8	10,06
472,153	10,07
472,505	10,08
472,858	10,09
473,21	10,09
473,562	10,1
473,915	10,1
474,267	10,12
474,619	10,11
474,971	10,09
475,324	10,07
475,676	10,09
476,028	10,1
476,38	10,11
476,732	10,13
477,084	10,13
477,436	10,11
477,787	10,08
478,139	10,04
478,491	10,04
478,843	10,03
479,195	10,02
479,546	9,97
479,898	9,89
480,249	9,83
480,601	9,8
480,952	9,77
481,304	9,77
481,655	9,78
482,007	9,78
482,358	9,78
482,709	9,77
483,061	9,76
483,412	9,74
483,763	9,73
484,114	9,73
484,465	9,71
484,816	9,72
485,167	9,72
485,518	9,73
485,869	9,74
486,22	9,74
486,571	9,74
486,922	9,76
487,272	9,79
487,623	9,82
487,974	9,84
488,324	9,85
488,675	9,85
489,025	9,84
489,376	9,84
489,726	9,85
490,077	9,87
490,427	9,89
490,778	9,91
491,128	9,94
491,478	9,96
491,828	9,99
492,179	10,01
492,529	10,03
492,879	10,04
493,229	10,04
493,579	10,05
493,929	10,07
494,279	10,07
494,629	10,1
494,979	10,12
495,328	10,15
495,678	10,2
496,028	10,24
496,378	10,28
496,727	10,32
497,077	10,32
497,426	10,32
497,776	10,33
498,125	10,34
498,475	10,34
498,824	10,35
499,174	10,35
499,523	10,36
499,872	10,36
500,221	10,37
500,571	10,38
500,92	10,39
501,269	10,39
501,618	10,41
501,967	10,42
502,316	10,41
502,665	10,41
503,014	10,41
503,363	10,39
503,711	10,41
504,06	10,41
504,409	10,41
504,758	10,41
505,106	10,4
505,455	10,41
505,803	10,42
506,152	10,41
506,5	10,41
506,849	10,4
507,197	10,42
507,546	10,42
507,894	10,43
508,242	10,44
508,59	10,42
508,939	10,39
509,287	10,39
509,635	10,4
509,983	10,41
510,331	10,42
510,679	10,43
511,027	10,43
511,375	10,42
511,723	10,43
512,07	10,43
512,418	10,45
512,766	10,46
513,114	10,45
513,461	10,47
513,809	10,48
514,156	10,46
514,504	10,45
514,851	10,43
515,199	10,4
515,546	10,38
515,893	10,4
516,241	10,42
516,588	10,43
516,935	10,43
517,282	10,43
517,63	10,45
517,977	10,47
518,324	10,48
518,671	10,5
519,018	10,5
519,365	10,5
519,711	10,49
520,058	10,5
520,405	10,52
520,752	10,51
521,099	10,53
521,445	10,56
521,792	10,56
522,138	10,57
522,485	10,59
522,832	10,6
523,178	10,6
523,524	10,6
523,871	10,6
524,217	10,61
524,563	10,58
524,91	10,51
525,256	10,46
525,602	10,42
525,948	10,41
526,294	10,41
526,64	10,41
526,986	10,41
527,332	10,41
527,678	10,4
528,024	10,41
528,37	10,42
528,716	10,42
529,061	10,42
529,407	10,42
529,753	10,42
530,098	10,42
530,444	10,41
530,789	10,41
531,135	10,41
531,48	10,41
531,826	10,41
532,171	10,45
532,516	10,47
532,862	10,49
533,207	10,51
533,552	10,5
533,897	10,52
534,242	10,53
534,587	10,53
534,932	10,54
535,277	10,55
535,622	10,53
535,967	10,54
536,312	10,55
536,657	10,57
537,001	10,59
537,346	10,62
537,691	10,61
538,035	10,58
538,38	10,57
538,724	10,57
539,069	10,58
539,413	10,59
539,758	10,59
540,102	10,61
540,446	10,61
540,791	10,62
541,135	10,62
541,479	10,63
541,823	10,64
542,167	10,64
542,512	10,64
542,856	10,63
543,2	10,62
543,543	10,61
543,887	10,62
544,231	10,61
544,575	10,61
544,919	10,64
545,262	10,68
545,606	10,71
545,95	10,72
546,293	10,73
546,637	10,72
546,98	10,75
547,324	10,75
547,667	10,76
548,011	10,75
548,354	10,77
548,697	10,74
549,04	10,73
549,384	10,71
549,727	10,69
550,07	10,71
550,413	10,71
550,756	10,73
551,099	10,72
551,442	10,74
551,785	10,75
552,128	10,75
552,47	10,73
552,813	10,72
553,156	10,73
553,499	10,73
553,841	10,73
554,184	10,71
554,526	10,69
554,869	10,66
555,211	10,66
555,554	10,65
555,896	10,64
556,238	10,61
556,581	10,58
556,923	10,56
557,265	10,53
557,607	10,51
557,949	10,48
558,291	10,47
558,633	10,42
558,975	10,41
559,317	10,39
559,659	10,39
560,001	10,38
560,343	10,34
560,685	10,3
561,026	10,26
561,368	10,24
561,71	10,21
562,051	10,17
562,393	10,16
562,734	10,11
563,076	10,08
563,417	10,08
563,759	10,09
564,1	10,11
564,441	10,11
564,782	10,09
565,124	10,07
565,465	10,07
565,806	10,08
566,147	10,06
566,488	10,04
566,829	10,03
567,17	10
567,511	9,99
567,851	9,97
568,192	9,96
568,533	9,97
568,874	9,97
569,214	9,98
569,555	9,94
569,895	9,95
570,236	9,95
570,576	9,92
570,917	9,91
571,257	9,89
571,598	9,88
571,938	9,89
572,278	9,89
572,618	9,88
572,959	9,87
573,299	9,88
573,639	9,86
573,979	9,85
574,319	9,84
574,659	9,84
574,999	9,82
575,339	9,83
575,678	9,81
576,018	9,78
576,358	9,76
576,698	9,74
577,037	9,73
577,377	9,73
577,716	9,72
578,056	9,7
578,395	9,66
578,735	9,62
579,074	9,58
579,413	9,54
579,753	9,5
580,092	9,43
580,431	9,37
580,77	9,36
581,109	9,3
581,448	9,27
581,787	9,24
582,126	9,26
582,465	9,24
582,804	9,23
583,143	9,24
583,482	9,23
583,82	9,26
584,159	9,25
584,498	9,24
584,836	9,24
585,175	9,23
585,514	9,25
585,852	9,26
586,19	9,27
586,529	9,25
586,867	9,25
587,205	9,28
587,544	9,28
587,882	9,25
588,22	9,27
588,558	9,31
588,896	9,33
589,234	9,3
589,572	9,3
589,91	9,3
590,248	9,29
590,586	9,29
590,924	9,28
591,262	9,26
591,599	9,26
591,937	9,27
592,275	9,27
592,612	9,26
592,95	9,27
593,287	9,26
593,625	9,28
593,962	9,27
594,299	9,31
594,637	9,35
594,974	9,39
595,311	9,43
595,648	9,44
595,985	9,42
596,322	9,42
596,659	9,43
596,996	9,43
597,333	9,4
597,67	9,39
598,007	9,36
598,344	9,37
598,681	9,38
599,017	9,36
599,354	9,38
599,691	9,37
600,027	9,37
600,364	9,4
600,7	9,43
601,037	9,44
601,373	9,43
601,71	9,43
602,046	9,42
602,382	9,42
602,718	9,42
603,054	9,45
603,391	9,48
603,727	9,49
604,063	9,51
604,399	9,55
604,735	9,58
605,071	9,6
605,406	9,61
605,742	9,6
606,078	9,61
606,414	9,62
606,749	9,63
607,085	9,64
607,421	9,64
607,756	9,63
608,092	9,63
608,427	9,63
608,762	9,62
609,098	9,61
609,433	9,58
609,768	9,56
610,104	9,52
610,439	9,49
610,774	9,47
611,109	9,44
611,444	9,39
611,779	9,36
612,114	9,36
612,449	9,35
612,784	9,32
613,118	9,28
613,453	9,25
613,788	9,22
614,123	9,16
614,457	9,09
614,792	9,05
615,126	9,02
615,461	8,98
615,795	8,97
616,13	8,91
616,464	8,89
616,798	8,87
617,132	8,85
617,467	8,85
617,801	8,83
618,135	8,83
618,469	8,84
618,803	8,87
619,137	8,87
619,471	8,87
619,805	8,88
620,139	8,88
620,472	8,89
620,806	8,9
621,14	8,9
621,473	8,93
621,807	8,94
622,141	8,94
622,474	8,95
622,808	8,94
623,141	8,98
623,474	9,02
623,808	9,05
624,141	9,07
624,474	9,14
624,807	9,16
625,141	9,18
625,474	9,2
625,807	9,21
626,14	9,22
626,473	9,25
626,806	9,28
627,138	9,28
627,471	9,28
627,804	9,3
628,137	9,33
628,469	9,32
628,802	9,33
629,135	9,34
629,467	9,36
629,8	9,36
630,132	9,34
630,465	9,32
630,797	9,31
631,129	9,32
631,461	9,28
631,794	9,28
632,126	9,27
632,458	9,27
632,79	9,28
633,122	9,29
633,454	9,26
633,786	9,25
634,118	9,24
634,45	9,27
634,781	9,25
635,113	9,24
635,445	9,25
635,777	9,27
636,108	9,25
636,44	9,23
636,771	9,22
637,103	9,23
637,434	9,26
637,765	9,26
638,097	9,25
638,428	9,22
638,759	9,2
639,09	9,18
639,422	9,17
639,753	9,13
640,084	9,09
640,415	9,08
640,746	9,07
641,077	9,11
641,407	9,11
641,738	9,12
642,069	9,12
642,4	9,1
642,73	9,07
643,061	9,06
643,392	9,03
643,722	9,04
644,053	9,06
644,383	9,02
644,713	9,04
645,044	9,06
645,374	9,11
645,704	9,11
646,034	9,12
646,365	9,1
646,695	9,13
647,025	9,16
647,355	9,17
647,685	9,19
648,015	9,16
648,344	9,14
648,674	9,13
649,004	9,12
649,334	9,14
649,663	9,19
649,993	9,21
650,323	9,26
650,652	9,24
650,982	9,23
651,311	9,23
651,64	9,19
651,97	9,19
652,299	9,18
652,628	9,19
652,958	9,19
653,287	9,2
653,616	9,19
653,945	9,17
654,274	9,2
654,603	9,22
654,932	9,21
655,261	9,21
655,589	9,23
655,918	9,28
656,247	9,34
656,576	9,33
656,904	9,37
657,233	9,39
657,561	9,45
657,89	9,51
658,218	9,56
658,547	9,58
658,875	9,57
659,203	9,57
659,532	9,58
659,86	9,61
660,188	9,62
660,516	9,65
660,844	9,69
661,172	9,71
661,5	9,71
661,828	9,74
662,156	9,76
662,484	9,76
662,811	9,74
663,139	9,73
663,467	9,73
663,794	9,7
664,122	9,7
664,45	9,68
664,777	9,64
665,104	9,64
665,432	9,65
665,759	9,66
666,086	9,68
666,414	9,66
666,741	9,65
667,068	9,67
667,395	9,65
667,722	9,64
668,049	9,61
668,376	9,61
668,703	9,62
669,03	9,67
669,357	9,67
669,683	9,65
670,01	9,61
670,337	9,59
670,663	9,59
670,99	9,56
671,317	9,56
671,643	9,54
671,969	9,47
672,296	9,44
672,622	9,43
672,948	9,39
673,275	9,36
673,601	9,31
673,927	9,27
674,253	9,26
674,579	9,24
674,905	9,23
675,231	9,21
675,557	9,18
675,883	9,15
676,209	9,15
676,534	9,13
676,86	9,16
677,186	9,2
677,511	9,26
677,837	9,3
678,162	9,32
678,488	9,39
678,813	9,47
679,139	9,56
679,464	9,61
679,789	9,62
680,114	9,65
680,44	9,67
680,765	9,68
681,09	9,66
681,415	9,62
681,74	9,59
682,065	9,58
682,39	9,6
682,714	9,59
683,039	9,59
683,364	9,64
683,689	9,62
684,013	9,57
684,338	9,5
684,662	9,45
684,987	9,42
685,311	9,38
685,636	9,35
685,96	9,28
686,284	9,25
686,608	9,24
686,933	9,21
687,257	9,19
687,581	9,21
687,905	9,23
688,229	9,23
688,553	9,22
688,877	9,22
689,201	9,22
689,524	9,23
689,848	9,24
690,172	9,21
690,496	9,17
690,819	9,15
691,143	9,12
691,466	9,12
691,79	9,08
692,113	9,03
692,436	8,97
692,76	8,96
693,083	8,97
693,406	8,95
693,729	8,93
694,053	8,93
694,376	8,88
694,699	8,87
695,022	8,96
695,344	9,05
695,667	9,13
695,99	9,27
696,313	9,38
696,636	9,49
696,958	9,6
697,281	9,72
697,604	9,81
697,926	9,89
698,249	9,92
698,571	9,96
698,893	9,99
699,216	10,01
699,538	10,01
699,86	10
700,182	10,03
700,504	10,06
700,827	10,07
701,149	10,04
701,471	10,05
701,793	9,98
702,114	9,94
702,436	9,89
702,758	9,73
703,08	9,59
703,401	9,42
703,723	9,28
704,045	9,15
704,366	9,05
704,688	8,94
705,009	8,89
705,331	8,87
705,652	8,87
705,973	8,83
706,294	8,79
706,616	8,74
706,937	8,71
707,258	8,63
707,579	8,6
707,9	8,66
708,221	8,71
708,542	8,77
708,863	8,82
709,183	8,87
709,504	8,91
709,825	8,92
710,145	8,95
710,466	8,97
710,787	9,01
711,107	9,06
711,427	9,07
711,748	9,05
712,068	9,04
712,388	9,08
712,709	9,19
713,029	9,26
713,349	9,27
713,669	9,28
713,989	9,41
714,309	9,53
714,629	9,61
714,949	9,65
715,269	9,68
715,589	9,7
715,908	9,72
716,228	9,71
716,548	9,76
716,867	9,75
717,187	9,73
717,506	9,76
717,826	9,69
718,145	9,71
718,465	9,78
718,784	9,77
719,103	9,77
719,422	9,73
719,741	9,73
720,061	9,78
720,38	9,91
720,699	10
721,018	10,03
721,336	10,11
721,655	10,2
721,974	10,35
722,293	10,48
722,612	10,59
722,93	10,71
723,249	10,8
723,567	10,93
723,886	11,06
724,204	11,15
724,523	11,37
724,841	11,57
725,159	11,7
725,477	11,83
725,796	11,9
726,114	12,02
726,432	12,21
726,75	12,4
727,068	12,48
727,386	12,57
727,704	12,69
728,022	12,83
728,339	12,98
728,657	13,03
728,975	13,09
729,292	13,15
729,61	13,21
729,928	13,3
730,245	13,5
730,562	13,68
730,88	13,82
731,197	13,9
731,514	13,97
731,832	14,03
732,149	14,15
732,466	14,3
732,783	14,37
733,1	14,44
733,417	14,53
733,734	14,68
734,051	14,8
734,368	14,88
734,684	14,87
735,001	14,92
735,318	15,04
735,634	15,17
735,951	15,29
736,268	15,43
736,584	15,56
736,9	15,54
737,217	15,51
737,533	15,56
737,849	15,64
738,166	15,72
738,482	15,88
738,798	16,06
739,114	16,28
739,43	16,52
739,746	16,58
740,062	16,63
740,378	16,69
740,693	16,73
741,009	16,81
741,325	16,93
741,641	16,91
741,956	16,91
742,272	16,97
742,587	17,09
742,903	17,19
743,218	17,21
743,533	17,37
743,849	17,56
744,164	17,72
744,479	17,79
744,794	17,93
745,109	18,03
745,424	17,98
745,739	17,92
746,054	17,85
746,369	17,81
746,684	17,89
746,999	17,99
747,313	18,08
747,628	18,18
747,943	18,22
748,257	18,36
748,572	18,58
748,886	18,73
749,201	18,88
749,515	18,94
749,829	19,07
750,144	19,2
750,458	19,26
750,772	19,3
751,086	19,45
751,4	19,49
751,714	19,55
752,028	19,73
752,342	19,84
752,656	19,96
752,97	20,16
753,284	20,3
753,597	20,33
753,911	20,36
754,225	20,39
754,538	20,51
754,852	20,6
755,165	20,58
755,478	20,64
755,792	20,63
756,105	20,68
756,418	20,73
756,731	20,7
757,045	20,7
757,358	20,79
757,671	20,89
757,984	21,03
758,297	20,97
758,609	20,91
758,922	20,9
759,235	20,87
759,548	20,88
759,86	20,63
760,173	20,37
760,486	20,25
760,798	20,08
761,111	19,91
761,423	19,81
761,735	19,8
762,048	19,81
762,36	19,79
762,672	19,81
762,984	19,84
763,296	19,9
763,608	20
763,92	20,03
764,232	20
764,544	19,96
764,856	20,1
765,168	20,21
765,48	20,31
765,791	20,45
766,103	20,56
766,414	20,86
766,726	21,21
767,037	21,56
767,349	22,09
767,66	22,55
767,972	23,02
768,283	23,43
768,594	23,65
768,905	23,93
769,216	24,21
769,527	24,53
769,838	24,8
770,149	24,93
770,46	25,14
770,771	25,43
771,082	25,73
771,393	25,96
771,703	26,27
772,014	26,59
772,324	26,74
772,635	26,86
772,945	26,97
773,256	27,15
773,566	27,39
773,877	27,4
774,187	27,47
774,497	27,42
774,807	27,49
775,117	27,62
775,427	27,69
775,737	27,81
776,047	27,88
776,357	28,06
776,667	28,33
776,977	28,44
777,287	28,47
777,596	28,46
777,906	28,52
778,216	28,48
778,525	28,5
778,835	28,75
779,144	28,59
779,453	28,53
779,763	28,7
780,072	28,72
780,381	28,98
780,69	29,17
781	29,47
781,309	29,59
781,618	29,68
781,927	29,87
782,235	30,11
782,544	30,36
782,853	30,54
783,162	30,7
783,471	30,78
783,779	30,91
784,088	31,14
784,396	31,21
784,705	31,28
785,013	31,17
785,322	30,98
785,63	31,31
785,938	31,38
786,246	31,27
786,554	31,33
786,863	31,2
787,171	31,06
787,479	31
787,787	31,12
788,094	31,28
788,402	31,28
788,71	31,36
789,018	31,24
789,326	30,95
789,633	30,74
789,941	30,79
790,248	30,87
790,556	30,96
790,863	31,01
791,171	30,97
791,478	31,12
791,785	31,33
792,092	31,44
792,399	31,62
792,707	31,7
793,014	31,56
793,321	31,59
793,628	31,9
793,934	32,05
794,241	31,96
794,548	31,76
794,855	31,61
795,161	31,48
795,468	31,47
795,775	31,68
796,081	31,88
796,388	32,07
796,694	32,06
797	31,81
797,307	31,88
797,613	31,97
797,919	32,08
798,225	32,17
798,531	32,19
798,837	32,2
799,143	32,25
799,449	32,31
799,755	32,38
800,061	32,29
800,367	32,31
800,672	32,5
800,978	32,83
801,284	33,33
801,589	33,38
801,895	33,44
802,2	33,6
802,506	33,8
802,811	33,68
803,116	33,67
803,421	33,79
803,727	33,72
804,032	33,9
804,337	33,87
804,642	33,81
804,947	33,93
805,252	34,18
805,556	34,36
805,861	34,55
806,166	34,46
806,471	34,43
806,775	34,53
807,08	34,44
807,384	34,39
807,689	34,36
807,993	34,59
808,298	34,87
808,602	35,02
808,906	35,24
809,211	35,37
809,515	35,7
809,819	36,04
810,123	36,23
810,427	36,36
810,731	36,59
811,035	36,72
811,338	36,79
811,642	36,75
811,946	36,8
812,25	36,92
812,553	37,23
812,857	37,57
813,16	37,65
813,464	37,66
813,767	37,6
814,07	37,51
814,374	37,43
814,677	37,38
814,98	37,41
815,283	37,15
815,586	36,87
815,889	36,52
816,192	36,39
816,495	36,14
816,798	35,75
817,101	35,38
817,404	35,05
817,706	34,58
818,009	33,83
818,312	32,93
818,614	31,79
818,917	30,15
819,219	27,86
819,521	25,94
819,824	24,33
820,126	23,26
820,428	22,49
820,73	21,89
821,032	21,49
821,334	21,13
821,636	20,87
821,938	20,75
822,24	20,77
822,542	20,71
822,844	20,68
823,145	20,65
823,447	20,57
823,749	20,46
824,05	20,38
824,352	20,37
824,653	20,38
824,955	20,37
825,256	20,46
825,557	20,71
825,858	21,01
826,16	21,45
826,461	21,87
826,762	22,29
827,063	22,8
827,364	23,28
827,665	23,81
827,965	24,38
828,266	24,9
828,567	25,16
828,868	25,48
829,168	25,76
829,469	25,96
829,769	26,23
830,07	26,63
830,37	27,06
830,67	27,46
830,971	27,83
831,271	28,24
831,571	28,42
831,871	28,68
832,171	28,89
832,471	28,91
832,771	28,9
833,071	28,91
833,371	29
833,671	28,97
833,971	28,99
834,27	28,86
834,57	28,95
834,869	29,09
835,169	29,17
835,468	29,35
835,768	29,69
836,067	29,92
836,367	30,21
836,666	30,58
836,965	31
837,264	31,53
837,563	32,2
837,862	33,1
838,161	33,8
838,46	34,57
838,759	35,4
839,058	36,17
839,356	37,05
839,655	37,64
839,954	38,2
840,252	38,56
840,551	39,49
840,849	40,11
841,148	40,81
841,446	41,04
841,744	41,25
842,043	41,37
842,341	41,82
842,639	42,35
842,937	42,78
843,235	43,08
843,533	43,49
843,831	44,37
844,129	45,34
844,427	46,6
844,724	47,61
845,022	48,87
845,32	50,39
845,617	51,6
845,915	52,73
846,212	53,58
846,51	54,84
846,807	54,78
847,104	55,03
847,402	55,19
847,699	56,2
847,996	56,9
848,293	57,57
848,59	57,92
848,887	57,99
849,184	58,23
849,481	58,87
849,778	59,75
850,074	59,82
850,371	59,79
850,668	59,82
850,964	59,94
851,261	59,82
851,557	59,62
851,854	59,69
852,15	59,87
852,446	60,1
852,743	59,76
853,039	60,26
853,335	60,34
853,631	59,84
853,927	59,75
854,223	59,69
854,519	59,62
854,815	59,63
855,111	58,78
855,406	58,59
855,702	58,68
855,998	58,25
856,293	58,14
856,589	58,68
856,884	59
857,18	59,48
857,475	60,05
857,77	60,37
858,066	60,28
858,361	59,77
858,656	59,23
858,951	59,54
859,246	59,89
859,541	60
859,836	60,66
860,131	60,3
860,426	60,18
860,72	60,4
861,015	60,86
861,31	62,13
861,604	63,14
861,899	63,74
862,193	64,14
862,487	64,19
862,782	63,58
863,076	63,57
863,37	62,87
863,664	62,14
863,959	62,01
864,253	61,87
864,547	61,8
864,841	61,93
865,135	62,39
865,428	62,67
865,722	63,13
866,016	62,93
866,31	63,54
866,603	64,01
866,897	63,69
867,19	62,67
867,484	61,57
867,777	60,7
868,07	60,17
868,364	59,86
868,657	59,14
868,95	58,52
869,243	57,99
869,536	58,15
869,829	58,66
870,122	58,89
870,415	58,99
870,708	59,7
871	60,3
871,293	60,09
871,586	59,39
871,878	59,11
872,171	59,59
872,463	59,12
872,756	57,99
873,048	57,17
873,341	57,57
873,633	58,12
873,925	58,05
874,217	57,8
874,509	57,76
874,801	58,74
875,093	59,8
875,385	60,26
875,677	60,68
875,969	60,75
