Data from zc74051_5_Reflection_00005.txt Node
Date: Thu Mar 12 15:06:12 ART 2020
User: Ana
Spectrometer: USB2E3644
Trigger mode: 4
Integration Time (sec): 5,000000E-2
Scans to average: 10
Electric dark correction enabled: true
Nonlinearity correction enabled: false
Boxcar width: 10
XAxis mode: Wavelengths
Number of Pixels in Spectrum: 2048
>>>>>Begin Spectral Data<<<<<
178,315	113,8
178,696	127,48
179,076	159,04
179,457	164,56
179,838	160,26
180,218	240,4
180,599	-411,11
180,979	63,16
181,36	264,44
181,74	138,38
182,121	125,93
182,501	114,26
182,881	113,27
183,262	115,24
183,642	114,86
184,022	110,26
184,402	108,33
184,783	108,55
185,163	109,29
185,543	111,55
185,923	113,1
186,303	116,02
186,683	120,78
187,063	124,7
187,443	124,65
187,823	121,75
188,203	119,29
188,583	117,67
188,963	115,38
189,343	113,7
189,723	114,06
190,102	113,81
190,482	113,45
190,862	113,75
191,242	114
191,621	114,28
192,001	116,07
192,38	116,81
192,76	117,14
193,14	117,11
193,519	117,5
193,898	117,99
194,278	116,58
194,657	114,61
195,037	113,94
195,416	113,23
195,795	113,98
196,175	115,52
196,554	116,04
196,933	116,17
197,312	117,02
197,692	117,83
198,071	118,73
198,45	120,01
198,829	120,42
199,208	121,06
199,587	121,62
199,966	121,83
200,345	121,98
200,724	122,36
201,103	122,02
201,482	121,38
201,86	120,24
202,239	119,54
202,618	119,48
202,997	120,45
203,375	121,14
203,754	120,42
204,133	120,03
204,511	120,08
204,89	120,46
205,269	119,95
205,647	119,32
206,026	118,38
206,404	117,65
206,782	117,28
207,161	116,26
207,539	115,65
207,918	115,05
208,296	114,63
208,674	114,32
209,052	115,08
209,431	115,4
209,809	116,5
210,187	117,88
210,565	118,96
210,943	118,71
211,321	119,05
211,699	120,51
212,077	121,79
212,455	122,43
212,833	122,57
213,211	122,66
213,589	123,26
213,967	124,54
214,345	124,63
214,722	124,35
215,1	124,56
215,478	125,37
215,855	126,32
216,233	126,84
216,611	127,07
216,988	126,69
217,366	126,2
217,743	125,36
218,121	124,41
218,498	123,37
218,876	122,14
219,253	120,75
219,631	118,53
220,008	116,85
220,385	115,58
220,762	114,95
221,14	114,4
221,517	113,92
221,894	113,27
222,271	113,48
222,648	114,32
223,025	114,23
223,402	114,18
223,78	113,25
224,157	112,11
224,533	111,94
224,91	112,68
225,287	113,88
225,664	115,58
226,041	118,18
226,418	120,96
226,795	123,17
227,171	124,78
227,548	127,16
227,925	128,75
228,301	130,68
228,678	131,65
229,055	132,82
229,431	134,56
229,808	136,13
230,184	136,61
230,561	137,32
230,937	138,6
231,313	139,02
231,69	140,33
232,066	143,58
232,442	146,1
232,819	147,62
233,195	148,29
233,571	148,85
233,947	148,24
234,323	147,98
234,699	149,04
235,075	151,11
235,451	154,1
235,827	157,55
236,203	161,2
236,579	165,87
236,955	170,08
237,331	173,52
237,707	179,21
238,083	188,45
238,459	199,82
238,834	217,22
239,21	241,12
239,586	269,39
239,961	292,68
240,337	310,89
240,713	324,12
241,088	340,11
241,464	354,89
241,839	374,06
242,215	406,97
242,59	499,54
242,965	879,8
243,341	-4676,34
243,716	-574,16
244,091	-326,65
244,467	-243,98
244,842	-200,38
245,217	-171,01
245,592	-155,67
245,967	-152,1
246,343	-146,71
246,718	-143,52
247,093	-146,68
247,468	-151,51
247,843	-151,13
248,218	-144,24
248,593	-131,41
248,967	-119,19
249,342	-112,26
249,717	-107,86
250,092	-104,9
250,467	-106,22
250,841	-115,03
251,216	-135,28
251,591	-168,49
251,965	-206,49
252,34	-244,67
252,714	-294,36
253,089	-356,17
253,463	-406,17
253,838	-409,79
254,212	-399,34
254,587	-362,8
254,961	-294,43
255,335	-231,49
255,71	-178,95
256,084	-130,58
256,458	-100,63
256,832	-84,31
257,206	-75,38
257,581	-70,85
257,955	-68,4
258,329	-65,79
258,703	-62,43
259,077	-59,59
259,451	-56,88
259,825	-55,8
260,199	-55,65
260,572	-54,48
260,946	-53,97
261,32	-53,45
261,694	-52,52
262,068	-52,16
262,441	-51,45
262,815	-51,23
263,189	-50,64
263,562	-51,21
263,936	-54,64
264,309	-60,7
264,683	-67,27
265,056	-71,12
265,43	-72,07
265,803	-70,87
266,176	-69,13
266,55	-68,12
266,923	-66,84
267,296	-64,83
267,67	-61,67
268,043	-58,81
268,416	-55,45
268,789	-51,8
269,162	-48,47
269,535	-46,01
269,908	-44,08
270,281	-43,07
270,654	-42,87
271,027	-43,56
271,4	-43,85
271,773	-43,95
272,146	-43,71
272,519	-43,35
272,891	-43,27
273,264	-43,5
273,637	-43,57
274,01	-43,55
274,382	-44,38
274,755	-44,96
275,127	-45,62
275,5	-46,09
275,872	-46,33
276,245	-46,94
276,617	-47,96
276,99	-48,95
277,362	-49,93
277,734	-50,31
278,107	-50,31
278,479	-49,56
278,851	-48,28
279,223	-47,31
279,596	-46,03
279,968	-45
280,34	-44,12
280,712	-43,15
281,084	-41,54
281,456	-39,82
281,828	-37,78
282,2	-34,97
282,572	-32,9
282,944	-31,4
283,315	-30,56
283,687	-29,71
284,059	-29,14
284,431	-28,64
284,802	-27,88
285,174	-27,16
285,546	-26,63
285,917	-26,01
286,289	-25,51
286,66	-25,15
287,032	-24,76
287,403	-24,78
287,775	-24,85
288,146	-24,97
288,518	-25,01
288,889	-25,01
289,26	-25,24
289,632	-26,03
290,003	-27,03
290,374	-27,68
290,745	-28,1
291,116	-28,08
291,487	-28,11
291,858	-27,95
292,229	-27,77
292,6	-27,54
292,971	-26,78
293,342	-25,83
293,713	-24,75
294,084	-23,83
294,455	-22,96
294,826	-22,48
295,196	-22,22
295,567	-22,39
295,938	-22,24
296,308	-22,03
296,679	-21,87
297,05	-21,58
297,42	-21,04
297,791	-20,44
298,161	-20,23
298,532	-19,91
298,902	-19,65
299,272	-19,27
299,643	-18,9
300,013	-18,39
300,383	-18,06
300,754	-18,11
301,124	-18,47
301,494	-19,06
301,864	-19,64
302,234	-20,17
302,604	-20,38
302,974	-20,34
303,344	-19,99
303,714	-19,64
304,084	-19,19
304,454	-18,84
304,824	-18,64
305,194	-18,61
305,563	-18,65
305,933	-18,36
306,303	-18
306,673	-17,5
307,042	-16,88
307,412	-16,22
307,781	-15,65
308,151	-15,31
308,521	-15,14
308,89	-14,87
309,259	-14,74
309,629	-14,59
309,998	-14,39
310,368	-14,26
310,737	-14,03
311,106	-13,76
311,475	-13,53
311,845	-13,55
312,214	-13,56
312,583	-13,52
312,952	-13,42
313,321	-13,36
313,69	-13,17
314,059	-13,25
314,428	-13,6
314,797	-14,11
315,166	-14,72
315,535	-15,27
315,904	-15,79
316,272	-16,08
316,641	-16,33
317,01	-16,23
317,379	-16,14
317,747	-15,93
318,116	-15,62
318,484	-15,45
318,853	-15,43
319,221	-15,58
319,59	-15,63
319,958	-15,51
320,327	-15,34
320,695	-15,16
321,063	-14,8
321,432	-14,41
321,8	-13,88
322,168	-13,37
322,536	-13,07
322,905	-12,56
323,273	-12,2
323,641	-11,83
324,009	-11,49
324,377	-11,23
324,745	-11,02
325,113	-10,8
325,481	-10,65
325,849	-10,58
326,216	-10,44
326,584	-10,26
326,952	-10,03
327,32	-9,72
327,687	-9,47
328,055	-9,16
328,423	-8,92
328,79	-8,88
329,158	-8,99
329,525	-9,13
329,893	-9,15
330,26	-9,04
330,628	-8,99
330,995	-8,85
331,362	-8,74
331,73	-8,72
332,097	-8,59
332,464	-8,45
332,831	-8,24
333,199	-8,1
333,566	-7,96
333,933	-7,76
334,3	-7,52
334,667	-7,37
335,034	-7,3
335,401	-7,37
335,768	-7,42
336,135	-7,46
336,502	-7,35
336,868	-7,15
337,235	-6,93
337,602	-6,72
337,969	-6,51
338,335	-6,39
338,702	-6,26
339,069	-6,18
339,435	-6,1
339,802	-5,98
340,168	-5,9
340,535	-5,84
340,901	-5,83
341,267	-5,77
341,634	-5,7
342	-5,66
342,366	-5,54
342,733	-5,45
343,099	-5,24
343,465	-5,14
343,831	-5,06
344,197	-5,02
344,563	-5,06
344,929	-5,09
345,295	-4,98
345,661	-4,84
346,027	-4,72
346,393	-4,69
346,759	-4,58
347,125	-4,45
347,491	-4,4
347,856	-4,36
348,222	-4,37
348,588	-4,2
348,953	-4,03
349,319	-4,01
349,684	-3,96
350,05	-3,93
350,415	-3,82
350,781	-3,78
351,146	-3,67
351,512	-3,54
351,877	-3,45
352,242	-3,34
352,608	-3,22
352,973	-3,2
353,338	-3,18
353,703	-3,08
354,068	-3,04
354,433	-2,96
354,798	-2,89
355,164	-2,8
355,528	-2,7
355,893	-2,62
356,258	-2,6
356,623	-2,51
356,988	-2,35
357,353	-2,24
357,718	-2,16
358,082	-2,12
358,447	-2,03
358,812	-1,9
359,176	-1,83
359,541	-1,74
359,905	-1,64
360,27	-1,58
360,634	-1,49
360,999	-1,36
361,363	-1,3
361,728	-1,2
362,092	-1,12
362,456	-1,05
362,821	-0,96
363,185	-0,88
363,549	-0,72
363,913	-0,68
364,277	-0,68
364,641	-0,7
365,005	-0,65
365,369	-0,6
365,733	-0,52
366,097	-0,45
366,461	-0,4
366,825	-0,28
367,189	-0,21
367,553	-0,09
367,916	0,1
368,28	0,22
368,644	0,24
369,007	0,3
369,371	0,38
369,734	0,48
370,098	0,54
370,461	0,6
370,825	0,66
371,188	0,7
371,552	0,83
371,915	0,95
372,278	1,12
372,642	1,25
373,005	1,41
373,368	1,59
373,731	1,72
374,094	1,8
374,457	1,89
374,82	2,01
375,183	2,07
375,546	2,11
375,909	2,16
376,272	2,29
376,635	2,41
376,998	2,49
377,361	2,56
377,723	2,68
378,086	2,78
378,449	2,84
378,811	2,86
379,174	2,92
379,537	2,96
379,899	3
380,262	3,01
380,624	3,03
380,987	3,03
381,349	3,05
381,711	3,1
382,074	3,17
382,436	3,23
382,798	3,32
383,16	3,36
383,522	3,42
383,884	3,42
384,247	3,43
384,609	3,49
384,971	3,53
385,333	3,54
385,695	3,56
386,056	3,62
386,418	3,68
386,78	3,7
387,142	3,72
387,504	3,76
387,865	3,84
388,227	3,88
388,589	3,93
388,95	3,99
389,312	4,03
389,673	4,04
390,035	4,05
390,396	4,06
390,758	4,08
391,119	4,09
391,48	4,12
391,842	4,13
392,203	4,13
392,564	4,14
392,925	4,19
393,286	4,22
393,648	4,23
394,009	4,28
394,37	4,33
394,731	4,39
395,092	4,39
395,452	4,4
395,813	4,42
396,174	4,42
396,535	4,41
396,896	4,42
397,257	4,45
397,617	4,48
397,978	4,49
398,338	4,5
398,699	4,56
399,06	4,62
399,42	4,67
399,781	4,7
400,141	4,71
400,501	4,73
400,862	4,74
401,222	4,75
401,582	4,75
401,943	4,75
402,303	4,74
402,663	4,75
403,023	4,76
403,383	4,77
403,743	4,78
404,103	4,79
404,463	4,82
404,823	4,85
405,183	4,86
405,543	4,89
405,903	4,89
406,262	4,88
406,622	4,86
406,982	4,88
407,342	4,9
407,701	4,94
408,061	4,96
408,42	4,99
408,78	5,02
409,139	5,03
409,499	5,05
409,858	5,07
410,217	5,12
410,577	5,11
410,936	5,11
411,295	5,09
411,655	5,09
412,014	5,05
412,373	5,02
412,732	4,99
413,091	4,96
413,45	4,94
413,809	4,91
414,168	4,86
414,527	4,81
414,886	4,77
415,245	4,74
415,603	4,69
415,962	4,66
416,321	4,63
416,679	4,59
417,038	4,53
417,397	4,49
417,755	4,45
418,114	4,43
418,472	4,41
418,831	4,41
419,189	4,41
419,547	4,4
419,906	4,39
420,264	4,38
420,622	4,36
420,981	4,35
421,339	4,35
421,697	4,35
422,055	4,37
422,413	4,38
422,771	4,39
423,129	4,42
423,487	4,44
423,845	4,46
424,203	4,49
424,56	4,54
424,918	4,58
425,276	4,63
425,634	4,67
425,991	4,71
426,349	4,74
426,707	4,79
427,064	4,83
427,422	4,87
427,779	4,91
428,137	4,98
428,494	5,06
428,851	5,1
429,209	5,13
429,566	5,12
429,923	5,11
430,28	5,09
430,637	5,1
430,995	5,09
431,352	5,08
431,709	5,07
432,066	5,06
432,423	5,06
432,78	5,04
433,137	5,04
433,493	5,03
433,85	5,03
434,207	5,01
434,564	4,99
434,92	4,99
435,277	5
435,634	4,98
435,99	4,97
436,347	4,95
436,703	4,96
437,06	4,95
437,416	4,97
437,773	4,97
438,129	4,96
438,485	4,97
438,841	4,97
439,198	4,98
439,554	4,96
439,91	4,96
440,266	4,97
440,622	4,97
440,978	4,97
441,334	4,95
441,69	4,94
442,046	4,92
442,402	4,91
442,758	4,89
443,113	4,89
443,469	4,88
443,825	4,88
444,181	4,88
444,536	4,89
444,892	4,9
445,247	4,92
445,603	4,94
445,958	4,95
446,314	4,96
446,669	4,97
447,025	4,98
447,38	4,99
447,735	5
448,09	5,01
448,446	5,03
448,801	5,05
449,156	5,07
449,511	5,11
449,866	5,15
450,221	5,2
450,576	5,23
450,931	5,29
451,286	5,31
451,641	5,36
451,995	5,4
452,35	5,44
452,705	5,46
453,06	5,45
453,414	5,46
453,769	5,47
454,123	5,48
454,478	5,49
454,832	5,5
455,187	5,49
455,541	5,48
455,896	5,44
456,25	5,43
456,604	5,4
456,958	5,38
457,313	5,37
457,667	5,36
458,021	5,35
458,375	5,36
458,729	5,38
459,083	5,39
459,437	5,4
459,791	5,39
460,145	5,41
460,499	5,42
460,852	5,42
461,206	5,42
461,56	5,43
461,914	5,44
462,267	5,45
462,621	5,47
462,974	5,49
463,328	5,53
463,681	5,55
464,035	5,6
464,388	5,63
464,742	5,66
465,095	5,68
465,448	5,71
465,801	5,72
466,155	5,72
466,508	5,72
466,861	5,7
467,214	5,69
467,567	5,67
467,92	5,67
468,273	5,69
468,626	5,68
468,979	5,68
469,332	5,69
469,684	5,68
470,037	5,69
470,39	5,71
470,743	5,75
471,095	5,77
471,448	5,76
471,8	5,78
472,153	5,8
472,505	5,82
472,858	5,82
473,21	5,82
473,562	5,83
473,915	5,84
474,267	5,85
474,619	5,86
474,971	5,87
475,324	5,87
475,676	5,89
476,028	5,91
476,38	5,92
476,732	5,92
477,084	5,93
477,436	5,94
477,787	5,94
478,139	5,93
478,491	5,93
478,843	5,92
479,195	5,9
479,546	5,86
479,898	5,84
480,249	5,81
480,601	5,77
480,952	5,74
481,304	5,72
481,655	5,72
482,007	5,71
482,358	5,71
482,709	5,7
483,061	5,69
483,412	5,69
483,763	5,7
484,114	5,71
484,465	5,71
484,816	5,69
485,167	5,69
485,518	5,69
485,869	5,7
486,22	5,71
486,571	5,71
486,922	5,73
487,272	5,74
487,623	5,75
487,974	5,77
488,324	5,8
488,675	5,83
489,025	5,84
489,376	5,86
489,726	5,88
490,077	5,9
490,427	5,92
490,778	5,93
491,128	5,95
491,478	5,97
491,828	6,01
492,179	6,05
492,529	6,09
492,879	6,12
493,229	6,15
493,579	6,17
493,929	6,2
494,279	6,22
494,629	6,25
494,979	6,29
495,328	6,34
495,678	6,37
496,028	6,42
496,378	6,45
496,727	6,5
497,077	6,53
497,426	6,54
497,776	6,55
498,125	6,58
498,475	6,59
498,824	6,6
499,174	6,61
499,523	6,63
499,872	6,64
500,221	6,65
500,571	6,66
500,92	6,67
501,269	6,69
501,618	6,71
501,967	6,72
502,316	6,73
502,665	6,75
503,014	6,77
503,363	6,79
503,711	6,81
504,06	6,83
504,409	6,84
504,758	6,86
505,106	6,89
505,455	6,91
505,803	6,93
506,152	6,93
506,5	6,94
506,849	6,95
507,197	6,96
507,546	6,97
507,894	7
508,242	7,02
508,59	7,02
508,939	7,03
509,287	7,05
509,635	7,08
509,983	7,11
510,331	7,13
510,679	7,16
511,027	7,18
511,375	7,19
511,723	7,22
512,07	7,24
512,418	7,26
512,766	7,29
513,114	7,31
513,461	7,34
513,809	7,36
514,156	7,36
514,504	7,4
514,851	7,4
515,199	7,41
515,546	7,41
515,893	7,43
516,241	7,45
516,588	7,45
516,935	7,47
517,282	7,49
517,63	7,5
517,977	7,51
518,324	7,53
518,671	7,56
519,018	7,57
519,365	7,6
519,711	7,61
520,058	7,62
520,405	7,65
520,752	7,65
521,099	7,68
521,445	7,73
521,792	7,73
522,138	7,75
522,485	7,78
522,832	7,82
523,178	7,84
523,524	7,86
523,871	7,88
524,217	7,91
524,563	7,91
524,91	7,92
525,256	7,91
525,602	7,9
525,948	7,89
526,294	7,88
526,64	7,87
526,986	7,86
527,332	7,85
527,678	7,86
528,024	7,88
528,37	7,89
528,716	7,89
529,061	7,91
529,407	7,93
529,753	7,95
530,098	7,97
530,444	7,98
530,789	7,99
531,135	8
531,48	7,99
531,826	8,01
532,171	8,03
532,516	8,06
532,862	8,09
533,207	8,13
533,552	8,17
533,897	8,23
534,242	8,26
534,587	8,32
534,932	8,35
535,277	8,37
535,622	8,38
535,967	8,43
536,312	8,44
536,657	8,48
537,001	8,52
537,346	8,56
537,691	8,6
538,035	8,64
538,38	8,66
538,724	8,67
539,069	8,7
539,413	8,72
539,758	8,73
540,102	8,76
540,446	8,77
540,791	8,78
541,135	8,78
541,479	8,82
541,823	8,82
542,167	8,83
542,512	8,85
542,856	8,86
543,2	8,86
543,543	8,88
543,887	8,9
544,231	8,91
544,575	8,92
544,919	8,95
545,262	9,01
545,606	9,05
545,95	9,1
546,293	9,13
546,637	9,16
546,98	9,21
547,324	9,24
547,667	9,32
548,011	9,36
548,354	9,4
548,697	9,42
549,04	9,43
549,384	9,47
549,727	9,5
550,07	9,53
550,413	9,54
550,756	9,58
551,099	9,6
551,442	9,62
551,785	9,65
552,128	9,66
552,47	9,66
552,813	9,7
553,156	9,71
553,499	9,74
553,841	9,75
554,184	9,77
554,526	9,77
554,869	9,76
555,211	9,77
555,554	9,77
555,896	9,77
556,238	9,77
556,581	9,77
556,923	9,75
557,265	9,77
557,607	9,81
557,949	9,82
558,291	9,84
558,633	9,83
558,975	9,85
559,317	9,85
559,659	9,84
560,001	9,82
560,343	9,82
560,685	9,81
561,026	9,81
561,368	9,83
561,71	9,82
562,051	9,83
562,393	9,85
562,734	9,84
563,076	9,86
563,417	9,89
563,759	9,91
564,1	9,93
564,441	9,96
564,782	9,94
565,124	9,93
565,465	9,93
565,806	9,95
566,147	9,96
566,488	9,96
566,829	9,99
567,17	10
567,511	10
567,851	10,04
568,192	10,05
568,533	10,04
568,874	10,08
569,214	10,12
569,555	10,12
569,895	10,16
570,236	10,16
570,576	10,16
570,917	10,17
571,257	10,19
571,598	10,18
571,938	10,22
572,278	10,25
572,618	10,26
572,959	10,29
573,299	10,33
573,639	10,35
573,979	10,35
574,319	10,37
574,659	10,42
574,999	10,43
575,339	10,44
575,678	10,48
576,018	10,48
576,358	10,49
576,698	10,5
577,037	10,49
577,377	10,5
577,716	10,52
578,056	10,54
578,395	10,57
578,735	10,58
579,074	10,57
579,413	10,6
579,753	10,62
580,092	10,59
580,431	10,56
580,77	10,57
581,109	10,58
581,448	10,58
581,787	10,57
582,126	10,59
582,465	10,58
582,804	10,61
583,143	10,66
583,482	10,68
583,82	10,73
584,159	10,77
584,498	10,82
584,836	10,85
585,175	10,85
585,514	10,86
585,852	10,89
586,19	10,96
586,529	10,97
586,867	11
587,205	11,06
587,544	11,12
587,882	11,19
588,22	11,27
588,558	11,31
588,896	11,36
589,234	11,37
589,572	11,42
589,91	11,44
590,248	11,44
590,586	11,46
590,924	11,48
591,262	11,5
591,599	11,51
591,937	11,54
592,275	11,57
592,612	11,61
592,95	11,65
593,287	11,7
593,625	11,76
593,962	11,81
594,299	11,86
594,637	11,89
594,974	11,93
595,311	11,96
595,648	12
595,985	12,03
596,322	12,07
596,659	12,11
596,996	12,16
597,333	12,17
597,67	12,19
598,007	12,19
598,344	12,22
598,681	12,28
599,017	12,31
599,354	12,35
599,691	12,38
600,027	12,43
600,364	12,48
600,7	12,54
601,037	12,61
601,373	12,69
601,71	12,75
602,046	12,79
602,382	12,82
602,718	12,85
603,054	12,88
603,391	12,89
603,727	12,9
604,063	12,92
604,399	12,96
604,735	13
605,071	13,05
605,406	13,1
605,742	13,14
606,078	13,2
606,414	13,26
606,749	13,35
607,085	13,38
607,421	13,41
607,756	13,45
608,092	13,46
608,427	13,47
608,762	13,47
609,098	13,47
609,433	13,47
609,768	13,48
610,104	13,53
610,439	13,59
610,774	13,62
611,109	13,64
611,444	13,68
611,779	13,68
612,114	13,69
612,449	13,72
612,784	13,7
613,118	13,7
613,453	13,68
613,788	13,64
614,123	13,65
614,457	13,67
614,792	13,65
615,126	13,66
615,461	13,67
615,795	13,73
616,13	13,76
616,464	13,82
616,798	13,86
617,132	13,89
617,467	13,91
617,801	13,94
618,135	13,96
618,469	14
618,803	14,07
619,137	14,11
619,471	14,16
619,805	14,18
620,139	14,21
620,472	14,28
620,806	14,33
621,14	14,37
621,473	14,4
621,807	14,44
622,141	14,45
622,474	14,48
622,808	14,5
623,141	14,56
623,474	14,62
623,808	14,67
624,141	14,73
624,474	14,83
624,807	14,91
625,141	14,99
625,474	15,05
625,807	15,1
626,14	15,13
626,473	15,17
626,806	15,21
627,138	15,26
627,471	15,26
627,804	15,3
628,137	15,35
628,469	15,38
628,802	15,43
629,135	15,48
629,467	15,51
629,8	15,54
630,132	15,58
630,465	15,6
630,797	15,63
631,129	15,67
631,461	15,68
631,794	15,66
632,126	15,69
632,458	15,71
632,79	15,71
633,122	15,77
633,454	15,79
633,786	15,83
634,118	15,85
634,45	15,92
634,781	16
635,113	16,03
635,445	16,06
635,777	16,1
636,108	16,17
636,44	16,21
636,771	16,26
637,103	16,28
637,434	16,28
637,765	16,29
638,097	16,31
638,428	16,36
638,759	16,4
639,09	16,41
639,422	16,44
639,753	16,5
640,084	16,52
640,415	16,53
640,746	16,57
641,077	16,63
641,407	16,66
641,738	16,66
642,069	16,67
642,4	16,71
642,73	16,76
643,061	16,79
643,392	16,8
643,722	16,83
644,053	16,87
644,383	16,94
644,713	17,01
645,044	17,03
645,374	17,06
645,704	17,12
646,034	17,14
646,365	17,14
646,695	17,21
647,025	17,3
647,355	17,35
647,685	17,43
648,015	17,43
648,344	17,44
648,674	17,49
649,004	17,5
649,334	17,53
649,663	17,56
649,993	17,6
650,323	17,65
650,652	17,66
650,982	17,73
651,311	17,76
651,64	17,8
651,97	17,84
652,299	17,86
652,628	17,92
652,958	18
653,287	18,09
653,616	18,07
653,945	18,06
654,274	18,1
654,603	18,13
654,932	18,21
655,261	18,29
655,589	18,32
655,918	18,45
656,247	18,5
656,576	18,55
656,904	18,61
657,233	18,7
657,561	18,76
657,89	18,78
658,218	18,82
658,547	18,91
658,875	18,98
659,203	19,03
659,532	19,07
659,86	19,11
660,188	19,12
660,516	19,2
660,844	19,29
661,172	19,36
661,5	19,43
661,828	19,45
662,156	19,49
662,484	19,56
662,811	19,57
663,139	19,61
663,467	19,64
663,794	19,62
664,122	19,63
664,45	19,69
664,777	19,72
665,104	19,83
665,432	19,81
665,759	19,78
666,086	19,82
666,414	19,82
666,741	19,85
667,068	19,91
667,395	19,88
667,722	19,86
668,049	19,88
668,376	19,84
668,703	19,91
669,03	19,96
669,357	19,99
669,683	20
670,01	20,02
670,337	20,07
670,663	20,15
670,99	20,17
671,317	20,2
671,643	20,18
671,969	20,08
672,296	20,1
672,622	20,19
672,948	20,21
673,275	20,23
673,601	20,22
673,927	20,23
674,253	20,3
674,579	20,34
674,905	20,33
675,231	20,35
675,557	20,36
675,883	20,38
676,209	20,43
676,534	20,46
676,86	20,57
677,186	20,64
677,511	20,7
677,837	20,74
678,162	20,8
678,488	20,94
678,813	21,08
679,139	21,13
679,464	21,12
679,789	21,15
680,114	21,24
680,44	21,28
680,765	21,31
681,09	21,34
681,415	21,37
681,74	21,43
682,065	21,5
682,39	21,52
682,714	21,54
683,039	21,55
683,364	21,65
683,689	21,64
684,013	21,66
684,338	21,63
684,662	21,68
684,987	21,69
685,311	21,67
685,636	21,69
685,96	21,74
686,284	21,85
686,608	21,86
686,933	21,82
687,257	21,86
687,581	21,9
687,905	21,93
688,229	21,92
688,553	21,89
688,877	21,9
689,201	21,92
689,524	21,96
689,848	22,01
690,172	21,96
690,496	21,98
690,819	21,96
691,143	21,99
691,466	22,01
691,79	22,05
692,113	22,12
692,436	22,11
692,76	22,17
693,083	22,18
693,406	22,19
693,729	22,21
694,053	22,2
694,376	22,2
694,699	22,23
695,022	22,35
695,344	22,48
695,667	22,64
695,99	22,8
696,313	22,96
696,636	23,06
696,958	23,19
697,281	23,29
697,604	23,39
697,926	23,46
698,249	23,53
698,571	23,61
698,893	23,61
699,216	23,68
699,538	23,7
699,86	23,69
700,182	23,76
700,504	23,89
700,827	23,92
701,149	23,96
701,471	24,01
701,793	24,01
702,114	24,05
702,436	24,05
702,758	24
703,08	23,93
703,401	23,83
703,723	23,79
704,045	23,75
704,366	23,73
704,688	23,78
705,009	23,71
705,331	23,71
705,652	23,73
705,973	23,67
706,294	23,61
706,616	23,7
706,937	23,74
707,258	23,69
707,579	23,8
707,9	23,89
708,221	24,01
708,542	24,1
708,863	24,14
709,183	24,2
709,504	24,24
709,825	24,21
710,145	24,25
710,466	24,27
710,787	24,36
711,107	24,38
711,427	24,39
711,748	24,49
712,068	24,53
712,388	24,62
712,709	24,76
713,029	24,83
713,349	24,8
713,669	24,8
713,989	24,83
714,309	24,92
714,629	24,99
714,949	25
715,269	25,03
715,589	25,05
715,908	25,03
716,228	25,04
716,548	25,18
716,867	25,25
717,187	25,36
717,506	25,46
717,826	25,6
718,145	25,68
718,465	25,72
718,784	25,69
719,103	25,66
719,422	25,58
719,741	25,59
720,061	25,68
720,38	25,86
720,699	26
721,018	26,09
721,336	26,16
721,655	26,29
721,974	26,49
722,293	26,7
722,612	26,95
722,93	27,16
723,249	27,23
723,567	27,36
723,886	27,42
724,204	27,5
724,523	27,61
724,841	27,73
725,159	27,9
725,477	28,12
725,796	28,23
726,114	28,46
726,432	28,66
726,75	28,79
727,068	28,85
727,386	28,96
727,704	29,07
728,022	29,21
728,339	29,31
728,657	29,33
728,975	29,35
729,292	29,36
729,61	29,46
729,928	29,6
730,245	29,76
730,562	29,92
730,88	30,02
731,197	30,11
731,514	30,25
731,832	30,29
732,149	30,38
732,466	30,55
732,783	30,58
733,1	30,68
733,417	30,87
733,734	30,97
734,051	31,02
734,368	30,97
734,684	31,02
735,001	31,1
735,318	31,21
735,634	31,31
735,951	31,4
736,268	31,48
736,584	31,51
736,9	31,47
737,217	31,51
737,533	31,69
737,849	31,78
738,166	31,92
738,482	32,15
738,798	32,3
739,114	32,49
739,43	32,65
739,746	32,74
740,062	32,84
740,378	33,01
740,693	33,22
741,009	33,55
741,325	33,76
741,641	33,78
741,956	33,88
742,272	34,04
742,587	34,09
742,903	34,17
743,218	34,36
743,533	34,51
743,849	34,68
744,164	34,6
744,479	34,68
744,794	34,76
745,109	34,85
745,424	34,97
745,739	35,05
746,054	35,23
746,369	35,34
746,684	35,47
746,999	35,47
747,313	35,42
747,628	35,29
747,943	35,25
748,257	35,47
748,572	35,63
748,886	35,67
749,201	35,92
749,515	36,01
749,829	36,08
750,144	36,28
750,458	36,23
750,772	36,37
751,086	36,47
751,4	36,54
751,714	36,51
752,028	36,46
752,342	36,48
752,656	36,47
752,97	36,62
753,284	36,58
753,597	36,68
753,911	36,8
754,225	36,91
754,538	36,9
754,852	36,8
755,165	36,81
755,478	36,99
755,792	37,02
756,105	37,09
756,418	37,1
756,731	37,08
757,045	37,24
757,358	37,29
757,671	37,28
757,984	37,34
758,297	37,32
758,609	37,41
758,922	37,48
759,235	37,5
759,548	37,5
759,86	37,41
760,173	37,33
760,486	37,42
760,798	37,35
761,111	37,34
761,423	37,29
761,735	37,25
762,048	37,12
762,36	37,16
762,672	37,28
762,984	37,34
763,296	37,37
763,608	37,43
763,92	37,5
764,232	37,59
764,544	37,64
764,856	37,75
765,168	37,78
765,48	37,81
765,791	37,85
766,103	37,89
766,414	38,17
766,726	38,46
767,037	38,63
767,349	39,02
767,66	39,37
767,972	39,86
768,283	40,32
768,594	40,76
768,905	40,93
769,216	41,05
769,527	41,29
769,838	41,61
770,149	41,75
770,46	41,96
770,771	42,17
771,082	42,31
771,393	42,62
771,703	42,91
772,014	42,95
772,324	42,96
772,635	43,1
772,945	43,27
773,256	43,35
773,566	43,49
773,877	43,46
774,187	43,55
774,497	43,49
774,807	43,34
775,117	43,24
775,427	43,29
775,737	43,38
776,047	43,52
776,357	43,49
776,667	43,62
776,977	43,71
777,287	43,84
777,596	43,94
777,906	44,04
778,216	44,21
778,525	44,64
778,835	45,09
779,144	45,41
779,453	45,37
779,763	45,44
780,072	45,5
780,381	45,65
780,69	45,61
781	45,72
781,309	45,85
781,618	45,97
781,927	46,15
782,235	46,35
782,544	46,47
782,853	46,72
783,162	46,9
783,471	46,74
783,779	46,74
784,088	46,8
784,396	46,76
784,705	46,59
785,013	46,38
785,322	46,15
785,63	46,01
785,938	45,97
786,246	45,92
786,554	45,83
786,863	45,68
787,171	45,78
787,479	45,91
787,787	46,13
788,094	46,36
788,402	46,35
788,71	46,37
789,018	46,59
789,326	46,64
789,633	46,69
789,941	47,15
790,248	47,1
790,556	47,24
790,863	47,31
791,171	47,4
791,478	47,56
791,785	47,83
792,092	47,86
792,399	48,06
792,707	48,11
793,014	48,09
793,321	48,38
793,628	48,77
793,934	48,95
794,241	48,89
794,548	48,69
794,855	48,54
795,161	48,63
795,468	48,41
795,775	48,43
796,081	48,48
796,388	48,29
796,694	48,42
797	48,32
797,307	48,42
797,613	48,42
797,919	48,63
798,225	48,62
798,531	48,65
798,837	48,71
799,143	48,94
799,449	49,13
799,755	49,09
800,061	48,88
800,367	48,93
800,672	48,99
800,978	49,18
801,284	49,51
801,589	49,37
801,895	49,41
802,2	49,44
802,506	49,56
802,811	49,6
803,116	49,62
803,421	49,66
803,727	49,56
804,032	49,63
804,337	49,58
804,642	49,64
804,947	49,73
805,252	49,48
805,556	49,38
805,861	49,43
806,166	49,31
806,471	49,36
806,775	49,26
807,08	49,31
807,384	49,34
807,689	49,33
807,993	49,55
808,298	49,79
808,602	49,93
808,906	49,86
809,211	49,78
809,515	49,77
809,819	49,67
810,123	49,73
810,427	49,83
810,731	49,82
811,035	49,85
811,338	49,77
811,642	49,76
811,946	49,65
812,25	49,75
812,553	50,09
812,857	50,23
813,16	50,25
813,464	50,14
813,767	50,19
814,07	50,17
814,374	50,1
814,677	50,04
814,98	49,92
815,283	49,78
815,586	49,87
815,889	49,89
816,192	50,33
816,495	50,33
816,798	50,26
817,101	49,97
817,404	49,97
817,706	50,03
818,009	49,98
818,312	49,64
818,614	48,76
818,917	47,39
819,219	45,7
819,521	44,62
819,824	43,56
820,126	42,76
820,428	42,28
820,73	42,02
821,032	41,62
821,334	41,35
821,636	41,2
821,938	41,1
822,24	41,1
822,542	41,02
822,844	41,1
823,145	41,11
823,447	41,1
823,749	41,03
824,05	40,88
824,352	40,79
824,653	40,8
824,955	40,85
825,256	40,97
825,557	41,16
825,858	41,32
826,16	41,67
826,461	42,11
826,762	42,53
827,063	42,84
827,364	43,34
827,665	43,82
827,965	44,25
828,266	44,61
828,567	44,7
828,868	44,8
829,168	44,77
829,469	44,76
829,769	44,74
830,07	44,72
830,37	44,94
830,67	45,13
830,971	45,21
831,271	45,35
831,571	45,59
831,871	45,89
832,171	45,85
832,471	45,71
832,771	45,58
833,071	45,51
833,371	45,43
833,671	45,42
833,971	45,25
834,27	45,2
834,57	45,48
834,869	45,89
835,169	46,27
835,468	46,52
835,768	46,88
836,067	47,28
836,367	47,72
836,666	48,3
836,965	48,96
837,264	49,48
837,563	49,98
837,862	50,6
838,161	51,16
838,46	52,09
838,759	52,87
839,058	53,33
839,356	53,58
839,655	54,05
839,954	54,44
840,252	55,1
840,551	55,71
840,849	55,69
841,148	55,79
841,446	55,47
841,744	55,21
842,043	55,13
842,341	55,33
842,639	55,78
842,937	55,67
843,235	55,58
843,533	55,77
843,831	56,4
844,129	56,81
844,427	57,45
844,724	57,71
845,022	58,1
845,32	58,82
845,617	59,34
845,915	60,12
846,212	60,48
846,51	60,78
846,807	60,74
847,104	61,33
847,402	61,73
847,699	63,04
847,996	63,94
848,293	64,48
848,59	64,76
848,887	64,72
849,184	65,4
849,481	65,98
849,778	66,42
850,074	66,61
850,371	66,79
850,668	67,13
850,964	67,4
851,261	67,41
851,557	67,34
851,854	67,42
852,15	67,33
852,446	67,62
852,743	67,44
853,039	67,64
853,335	67,2
853,631	66,55
853,927	66,06
854,223	66,07
854,519	66,4
854,815	66,7
855,111	66,16
855,406	65,81
855,702	65,55
855,998	65,26
856,293	65,3
856,589	65,47
856,884	65,91
857,18	66,93
857,475	67,94
857,77	68,29
858,066	68,88
858,361	69,26
858,656	69,5
858,951	69,88
859,246	70,17
859,541	70,45
859,836	70,88
860,131	70,55
860,426	69,94
860,72	69,77
861,015	69,71
861,31	70,56
861,604	70,99
861,899	71,61
862,193	72,18
862,487	72,47
862,782	72,1
863,076	71,45
863,37	70,42
863,664	70,22
863,959	70,57
864,253	70,84
864,547	70,71
864,841	70,58
865,135	70,71
865,428	70,68
865,722	71,13
866,016	71,29
866,31	71,95
866,603	72,67
866,897	72,57
867,19	72,33
867,484	72,06
867,777	71,99
868,07	71,46
868,364	71,07
868,657	70,4
868,95	70,44
869,243	70,52
869,536	71,2
869,829	71,57
870,122	71,72
870,415	71,14
870,708	70,66
871	70,01
871,293	69,73
871,586	69,32
871,878	69,19
872,171	69,13
872,463	68,99
872,756	68,36
873,048	67,38
873,341	67,39
873,633	67,34
873,925	67,19
874,217	67,38
874,509	67,48
874,801	67,75
875,093	67,86
875,385	67,74
875,677	66,71
875,969	65,18
